time,seconds_elapsed,z,y,x
1745104516420906800,0.02690673828125,1.0174825140744448,0.9754898769974708,0.39181726108398285
1745104516430864000,0.03686376953125,0.5221007240217179,0.5471306089252234,0.8197916580244898
1745104516440821000,0.046821044921875,0.2916412785749882,-0.18011866674125193,1.0800988369852305
1745104516450778000,0.056778076171875,-0.3091483667582273,-0.3406120110362768,0.6197413793668151
1745104516460734700,0.066734619140625,-0.6996878995239735,-0.1466886908262968,0.1977949374789372
1745104516470691000,0.076691162109375,-0.40852644035518165,-0.18833996711969375,0.004448138515278696
1745104516480647700,0.086647705078125,-0.7518524595905095,-0.08885141888558865,-0.49817894649058575
1745104516490604800,0.096604736328125,-1.1096738179724663,-0.25384733529686926,-0.8700817294560372
1745104516500562000,0.10656201171875,-0.9202729436229914,-0.7491986571460962,-0.8018133721329271
1745104516510518800,0.116518798828125,-0.9399608829766511,-0.592764232853055,-0.7709492281179875
1745104516520476000,0.126475830078125,-0.7719885811030864,-0.044127895539999004,-0.8809734180875122
1745104516530433000,0.13643310546875,-0.03247596312575042,0.07805237697362899,-0.5766195190642028
1745104516540388900,0.146388916015625,0.12940620517916976,0.1614981374233961,0.002205291491933167
1745104516550346000,0.156345947265625,-0.024792459418438374,0.14157237072587012,0.2678947114802897
1745104516560302800,0.166302734375,0.38360184245705603,-0.08515197984576225,0.33085268743559715
1745104516570259700,0.176259765625,0.712766649870947,0.15969605643749235,0.5935815040526912
1745104516580216800,0.186216796875,0.7396586753845215,0.6480804618835448,0.9711629537090658
1745104516590174000,0.196174072265625,0.8264074959676713,0.6202122117489576,1.0687975446395575
1745104516600130800,0.206130859375,0.7464385447829961,0.2680062090307474,0.735969611608237
1745104516610088000,0.216087890625,0.37084351970348506,0.05715045872032642,0.4391101599935442
1745104516620044000,0.2260439453125,0.19160053981821984,0.01796060410439968,0.33134419727958736
1745104516630001000,0.2360009765625,0.08619717804975807,0.13121347379684448,0.05336131383674219
1745104516639958000,0.2459580078125,-0.17922953588180243,0.11955226209759712,-0.4890658849041909
1745104516649915000,0.255914794921875,-0.5370563010912388,-0.13564473424255846,-0.749729183826223
1745104516659871700,0.265871826171875,-0.7961650640476494,-0.4719207619011402,-0.7344437902804464
1745104516669828900,0.275828857421875,-0.8955705371081829,-0.5364005405962466,-0.7999708130061626
1745104516679786000,0.285785888671875,-0.7449550282269716,-0.28375556682646275,-0.8833595825716852
1745104516689742800,0.295742919921875,-0.5184393154373392,-0.02297697096168995,-0.6081477895436808
1745104516699699000,0.305698974609375,-0.39903201476838435,0.005877952122688293,-0.15919895710293203
1745104516709656000,0.315656005859375,-0.3057639484843239,-0.1250333238571882,0.08351867955550552
1745104516719613000,0.325613037109375,-0.030745851397514342,-0.16579086618125438,0.1523162118518725
1745104516729569800,0.33556982421875,0.3161047617673874,0.0879161838620901,0.4915294620061293
1745104516739527000,0.34552685546875,0.5091174334058538,0.46728141166269777,0.9002489041827618
1745104516749483800,0.35548388671875,0.6601689590841532,0.5502011024117469,0.9369445308301597
1745104516759441000,0.36544091796875,0.7310498369932175,0.24575813686549663,0.6426437507223337
1745104516769396700,0.375396728515625,0.5454758639881387,0.09057634298205375,0.484366073182784
1745104516779353900,0.385353759765625,0.4168079830208793,0.16761048282384872,0.4594471013078466
1745104516789311000,0.39531103515625,0.41119828991293905,0.2753846288442611,0.15690976845351978
1745104516799268000,0.40526806640625,0.23615798588190226,0.260256033295393,-0.32772761421762403
1745104516809225000,0.415224853515625,-0.06455233247466385,0.0068622869849205015,-0.5596234491430223
1745104516819181800,0.425181884765625,-0.4621938062001019,-0.2573579737663269,-0.5680250379918143
1745104516829139000,0.435138916015625,-0.7321610861707478,-0.3718833476126194,-0.6830408622361719
1745104516839094800,0.4450947265625,-0.7355706023532896,-0.36058395496308804,-0.8459164254926145
1745104516849052000,0.455052001953125,-0.7415116828400641,-0.20128303532302377,-0.6440615816310048
1745104516859008800,0.4650087890625,-0.718556850644946,-0.15671499480009077,-0.23214668614761902
1745104516868966000,0.4749658203125,-0.5107008301397785,-0.24648878922760487,-0.03631048152102157
1745104516878923000,0.484923095703125,-0.25526655444502827,-0.19265783031880854,0.030790567322075364
1745104516888880000,0.494880126953125,0.08220131334662437,0.049877837368845934,0.3392994671329856
1745104516898836700,0.504836669921875,0.3557346883010119,0.32683249200880526,0.7252076868362725
1745104516908793900,0.5147939453125,0.5420107086282223,0.40866380299925803,0.7729369678691029
1745104516918749700,0.524749755859375,0.6543575693916529,0.2413718846052885,0.5713205724058672
1745104516928706800,0.534706787109375,0.6342588572800159,0.17734686394035815,0.5029369912052527
1745104516938664000,0.544663818359375,0.5133417365700006,0.2874555903881788,0.5142077422821894
1745104516948620800,0.554620849609375,0.5183990564921871,0.300383461022377,0.2522833556494675
1745104516958578000,0.564577880859375,0.41914490153584627,0.2390793897539377,-0.15799701570095492
1745104516968535000,0.57453515625,0.1575899510037154,0.09252513896226883,-0.37257710203044114
1745104516978492000,0.584491943359375,-0.10390344206690788,-0.13563947354555128,-0.39377230414189396
1745104516988448800,0.59444873046875,-0.4132663283586502,-0.1839624826878309,-0.5471881843313574
1745104516998404900,0.60440478515625,-0.6055125822018832,-0.19393851777911186,-0.6690956312529742
1745104517008361700,0.61436181640625,-0.7390267341565341,-0.2608177588313818,-0.4755351530060172
1745104517018318800,0.62431884765625,-0.8588041102468967,-0.323537542116642,-0.2533528663108125
1745104517028276000,0.63427587890625,-0.7734516393929719,-0.3727414257466793,-0.16987537728222085
1745104517038232800,0.64423291015625,-0.4363063546191901,-0.2501864747017622,-0.088383326449804
1745104517048190000,0.65418994140625,-0.17206687771081924,0.09534428803622721,0.1836971462825313
1745104517058147000,0.66414697265625,0.08424648237340152,0.23152385980784893,0.45315556341558694
1745104517068103000,0.67410302734375,0.3122100924164057,0.13914426679611205,0.4639919416632503
1745104517078060000,0.68406005859375,0.46659580401871353,0.10654781909584998,0.40816790924109514
1745104517088017000,0.694016845703125,0.6359025328338146,0.23787819727063178,0.47487004016079004
1745104517097973800,0.703973876953125,0.768024353647232,0.45207741279006003,0.4959160065272823
1745104517107931000,0.713930908203125,0.7689847231119871,0.4996130709469318,0.2550255122307688
1745104517117888000,0.723887939453125,0.6344780529886483,0.27846856633424755,-0.01053799808928743
1745104517127844900,0.733844970703125,0.261539058843255,0.05770575451552867,-0.11230557890497148
1745104517137802000,0.743802001953125,-0.05374218464680016,-0.062194298106431956,-0.1752344931625761
1745104517147758000,0.753758056640625,-0.19735219868011772,-0.11349836888611316,-0.35536512433625755
1745104517157715000,0.76371484375,-0.455475896121934,-0.047420507344603534,-0.4750497441092506
1745104517167671800,0.773671875,-0.7490677973080426,-0.19175883565247057,-0.3373196184273809
1745104517177628700,0.783628662109375,-0.8878747949738055,-0.4449123434662819,-0.24504704772038383
1745104517187585500,0.79358544921875,-0.9348416402667761,-0.47798225389719007,-0.2909876004392281
1745104517197542700,0.803542724609375,-0.6952437795966864,-0.3091460286706686,-0.1923482529129833
1745104517207499800,0.813499755859375,-0.389196885985136,-0.010778583645820617,0.12517390137165785
1745104517217456600,0.82345654296875,-0.2046329302728176,0.14587094470262527,0.25929190097097304
1745104517227412700,0.833412841796875,0.08784194958209991,0.02426175007522106,0.20000939865801481
1745104517237369900,0.843369873046875,0.3152273944109678,0.004085808008909226,0.17901750056631863
1745104517247326700,0.85332666015625,0.47741234505474567,0.24048458037674425,0.3381622067313641
1745104517257283600,0.86328369140625,0.7085019050985575,0.43400282691717146,0.4104346485966816
1745104517267240700,0.87324072265625,0.8527366999667138,0.4676064058333635,0.21496269243890417
1745104517277197600,0.883197509765625,0.7254968059759587,0.3601484861552715,0.06944854355100542
1745104517287154700,0.89315478515625,0.5119838191550224,0.1692284394145012,0.10165878667896613
1745104517297110800,0.90311083984375,0.2750601461302489,0.07688157962858677,0.026381043784134087
1745104517307067600,0.913067626953125,0.06344170435164123,0.0915454802751541,-0.1726918412087485
1745104517317024800,0.923024658203125,-0.14062310717701912,0.04231295507252216,-0.2576028884381056
1745104517326982000,0.93298193359375,-0.41780163370072837,-0.09036474605798721,-0.17327530365251004
1745104517336938500,0.9429384765625,-0.7670662492047995,-0.2901391303837299,-0.1633846270234324
1745104517346895600,0.9528955078125,-0.8868881220240146,-0.4504027575761079,-0.24127187656322494
1745104517356852700,0.962852783203125,-0.7863396894734352,-0.39341362689733506,-0.20463676619771867
1745104517366809600,0.9728095703125,-0.6966577380478381,-0.13516367272734642,-0.013605568966362624
1745104517376765700,0.982765625,-0.44507082196362313,-0.040301615250110626,0.0971722706483677
1745104517386722800,0.992722900390625,-0.19623451976180076,-0.08045943811535834,-0.00029646219592541456
1745104517396679700,1.0026796875,0.03204524355828762,-0.03369534885287285,-0.02117012246912345
1745104517406636800,1.01263671875,0.30789222921729087,0.13752689472734927,0.1799678966263309
1745104517416593700,1.02259375,0.5697767404973506,0.3230535579919815,0.27541023820955307
1745104517426550500,1.032550537109375,0.771508104109764,0.41466567376255986,0.1489418583142571
1745104517436507600,1.042507568359375,0.7952765177100897,0.38555648365616796,0.12400286656459793
1745104517446464800,1.05246484375,0.679117332116887,0.27622575584352016,0.19142834332277997
1745104517456420600,1.062420654296875,0.5462747958134859,0.1885071403801441,0.17830423773042856
1745104517466377700,1.072377685546875,0.32279454172961414,0.1768085192799568,0.013380290576815605
1745104517476334600,1.08233447265625,0.11204985057823359,0.11525427264273166,-0.08614194073118268
1745104517486291700,1.092291748046875,-0.20065350524783132,-0.025612580162286756,-0.029771763934660703
1745104517496248800,1.102248779296875,-0.5566437757451087,-0.19294483056664466,-0.05769954397045075
1745104517506205700,1.112205810546875,-0.7653139256447553,-0.3779091837733984,-0.19235716687180102
1745104517516162600,1.12216259765625,-0.8439753744274378,-0.38266426934599873,-0.19392454405268653
1745104517526118700,1.13211865234375,-0.8159732687801122,-0.2507879477262497,-0.08745956266839057
1745104517536075500,1.142075439453125,-0.6790122643072157,-0.17766659741401672,-0.07639699271572753
1745104517546032600,1.15203271484375,-0.44537820741236206,-0.15690437989234923,-0.13489418986989185
1745104517555989800,1.16198974609375,-0.18925123674571512,-0.08075754427909851,-0.1403788135597482
1745104517565946600,1.171946533203125,0.04989712659120559,0.060441316959261894,0.02504349330374971
1745104517575903700,1.18190380859375,0.3453571597367525,0.2106330474704504,0.07539638257212937
1745104517585860600,1.191860595703125,0.5480840371925384,0.2704196999132633,0.06712715139873325
1745104517595817700,1.201817626953125,0.6428174267888068,0.29925708734095097,0.11241075631249696
1745104517605773600,1.211773681640625,0.6691168201714753,0.32068449077308175,0.20660254984535276
1745104517615730700,1.221730712890625,0.6212105020713061,0.275252526897192,0.2176131338824518
1745104517625687600,1.2316875,0.49831711285226044,0.21952713254392145,0.09795187671873717
1745104517635644700,1.241644775390625,0.33563356503657993,0.1627186191290617,0.07525162207288667
1745104517645601800,1.251601806640625,0.1466313346158713,0.07571896559000015,0.1595636439631693
1745104517655558700,1.26155859375,-0.07724982841908931,0.019874913293123245,0.10540807447619735
1745104517665515800,1.271515869140625,-0.31936873199939725,-0.08139759574830531,-0.05273839616542682
1745104517675472000,1.281471923828125,-0.4773269683262333,-0.2263578553467989,-0.06963208342436701
1745104517685428700,1.2914287109375,-0.6755611740052699,-0.2071247470885515,-0.013993143511842936
1745104517695385600,1.301385498046875,-0.7348655958890914,-0.2236824986577034,-0.07926301313871517
1745104517705342700,1.3113427734375,-0.6142834792871028,-0.2803986576139927,-0.1998968599279411
1745104517715299600,1.321299560546875,-0.5804694724906235,-0.18916589654982088,-0.21021628336310386
1745104517725256700,1.331256591796875,-0.3883605082262307,-0.11530220343768596,-0.13307188807986675
1745104517735213800,1.3412138671875,-0.07969780609309673,-0.010071896681189536,-0.09737944712564349
1745104517745170700,1.351170654296875,0.09421732983291149,0.11947802781760691,-0.11330107448203489
1745104517755126800,1.361126708984375,0.3377104443758726,0.1258136605799198,-0.04300248997295275
1745104517765084000,1.371083984375,0.4266641545921564,0.23306232142150402,0.04846327612949535
1745104517775040500,1.38104052734375,0.5566069508660584,0.278031343960762,0.12144551023198291
1745104517784997600,1.39099755859375,0.6979875253468751,0.2603168235719204,0.1925918341442011
1745104517794954800,1.400954833984375,0.5537748692452907,0.3604582827568054,0.26809914801120754
1745104517804911600,1.41091162109375,0.4642085070233792,0.2475800915956497,0.3036555414956063
1745104517814868700,1.42086865234375,0.3172304778616875,0.10462006590366363,0.21388234985629095
1745104517824824600,1.430824462890625,-0.030913097723200916,0.06077274087071419,0.14085965587925164
1745104517834781700,1.44078173828125,-0.14771920291781424,-0.08532149119377136,0.16068499440960585
1745104517844738800,1.45073876953125,-0.391517510952428,-0.11026596283614634,0.0884166624638252
1745104517854695700,1.46069580078125,-0.5682996536821127,-0.1506973419457674,-0.10266781759103759
1745104517864652500,1.470652587890625,-0.6213614548493176,-0.2777583722382784,-0.17653308160575107
1745104517874609700,1.480609619140625,-0.676042235520482,-0.24245851079821584,-0.17662419395530596
1745104517884566800,1.49056689453125,-0.6517126809060573,-0.22146832973957062,-0.23517277423683552
1745104517894523600,1.500523681640625,-0.40295886935591696,-0.20694354530274867,-0.35499577956721184
1745104517904479700,1.510479736328125,-0.18988259345181285,-0.027376082703471184,-0.33632892688959837
1745104517914436600,1.5204365234375,0.0815459912430495,0.1090390513896942,-0.175703718109522
1745104517924393700,1.530393798828125,0.3638052550971508,0.14656477218568323,-0.049587804913707074
1745104517934350800,1.540350830078125,0.4539584407636896,0.25110592763423917,-0.013903419401776045
1745104517944307700,1.5503076171875,0.6068997257113457,0.2597872467398643,0.11167522684587165
1745104517954264600,1.5602646484375,0.5992599515479058,0.2923924622684717,0.3182107941359281
1745104517964221700,1.5702216796875,0.4735668120751157,0.29242110384106634,0.3784446788895875
1745104517974177500,1.580177490234375,0.4675895277637988,0.1594891356885433,0.31724541970249265
1745104517984134700,1.590134765625,0.24370354242324826,0.13448095116019249,0.29207554180640727
1745104517994091800,1.600091796875,-0.03799925659187138,0.08904255754351616,0.3305686097972095
1745104518004048600,1.610048583984375,-0.1807435206413269,-0.0639180531591177,0.2186642869031988
1745104518014005800,1.620005859375,-0.4708184266824275,-0.15362170495986938,-0.02431075858240947
1745104518023962600,1.629962646484375,-0.6128998429089785,-0.25127602350413797,-0.14534836386693642
1745104518033919500,1.63991943359375,-0.6352076093722134,-0.2768552859187126,-0.2288770533598028
1745104518043876600,1.649876708984375,-0.6230191589284688,-0.20672961029112338,-0.3900519684445113
1745104518053832700,1.659832763671875,-0.5354355680216103,-0.1896621556341648,-0.4514537279337644
1745104518063789600,1.66978955078125,-0.27621063133962453,-0.14775076709985732,-0.3734323306202888
1745104518073746700,1.67974658203125,-0.07109948909580707,0.020523148068785666,-0.2876676805025898
1745104518083703800,1.689703857421875,0.10702888061106204,0.14991057548224926,-0.22043966254526748
1745104518093660700,1.69966064453125,0.2436193712711334,0.14875205309689044,-0.053228079378511754
1745104518103617800,1.70961767578125,0.3838391583442688,0.1459784967303276,0.2308590940224938
1745104518113574700,1.71957470703125,0.45260289796888825,0.23020342485904693,0.37581286908127365
1745104518123530800,1.72953076171875,0.5382786824930459,0.2712958982259035,0.3731794153051451
1745104518133487600,1.739487548828125,0.5843763437360525,0.27685996209383007,0.4082554048614576
1745104518143444700,1.74944482421875,0.35575690013281996,0.28549393492639064,0.48801674117743965
1745104518153401600,1.759401611328125,0.1930289286535233,0.12174538822770117,0.45305612162910397
1745104518163358700,1.769358642578125,0.08212649454474448,-0.08528115918338298,0.19564963254593312
1745104518173315800,1.77931591796875,-0.14889241141565143,-0.02679448342323303,0.03690873967511579
1745104518183272700,1.789272705078125,-0.3080354370802641,0.0001999064862728119,-0.024359949752688407
1745104518193229600,1.7992294921875,-0.4039251571048051,-0.09723287826180457,-0.1732151892294176
1745104518203185700,1.809185546875,-0.5754722487252205,-0.21329612919986246,-0.4588776673894375
1745104518213142500,1.819142578125,-0.610293459802866,-0.3570779926687479,-0.5271643640868365
1745104518223099600,1.829099609375,-0.5447996086943895,-0.2687035436451435,-0.41362931645214557
1745104518233056500,1.839056396484375,-0.36898583607282487,-0.032245734566450114,-0.34134832595419135
1745104518243013600,1.849013671875,-0.06653736881203949,0.06780570824742317,-0.2690655088253319
1745104518252970800,1.858970703125,0.05396835808549076,0.08212064932584762,-0.1262740081006661
1745104518262927600,1.868927734375,0.07651851846985519,0.03828033855557442,0.08851480734236537
1745104518272883700,1.8788837890625,0.23189210859835147,0.02524725398123264,0.2681579472600482
1745104518282840800,1.8888408203125,0.36473464490175245,0.1991436852067709,0.35580636529773474
1745104518292797400,1.89879736328125,0.45075756236314773,0.3488262971520424,0.4572557287434116
1745104518302754600,1.908754638671875,0.5282539859544485,0.271173733150959,0.4880152433400973
1745104518312711700,1.918711669921875,0.3787146549373865,0.15914602133929728,0.41658896997533734
1745104518322668500,1.92866845703125,0.1923416039764881,0.07195581366419791,0.2666855000873096
1745104518332625700,1.938625732421875,0.18342881420254706,0.032433950614929194,0.1315861795667559
1745104518342582800,1.948582763671875,0.09880107742659747,0.1004424879580736,-0.015381510864011943
1745104518352538600,1.95853857421875,-0.18058811088390647,0.09857610956430435,-0.21600905968667938
1745104518362495700,1.968495849609375,-0.3770534071942791,-0.14438918171226978,-0.338264059670642
1745104518372452600,1.97845263671875,-0.5406289719462395,-0.3351180897951126,-0.38251317043751476
1745104518382409500,1.988409423828125,-0.6343132178157568,-0.30027298638522626,-0.42944607692826536
1745104518392366600,1.99836669921875,-0.5345849790742621,-0.1850789194971323,-0.4291290103357285
1745104518402323700,2.00832373046875,-0.3903957403808832,-0.09435703056454658,-0.2857884791598655
1745104518412280600,2.018280517578125,-0.3560305294424295,-0.021834230667352676,-0.1048251234890893
1745104518422236700,2.028236572265625,-0.16848083591759203,-0.059448214268684386,0.051985203177947546
1745104518432193800,2.03819384765625,0.1055838694345206,-0.0391699808716774,0.17391984863374382
1745104518442150700,2.048150634765625,0.23805764549076555,0.17677520153224469,0.31564766564965246
1745104518452107800,2.058107666015625,0.45963473283443596,0.31553193031549454,0.451500014760904
1745104518462064600,2.068064697265625,0.6146516550123691,0.3256424054414034,0.43842181240320205
1745104518472021500,2.078021484375,0.545445432317257,0.2656798119097948,0.3827290782105177
1745104518481978600,2.087978515625,0.45807453431300815,0.1754617808461189,0.32361228785328566
1745104518491935700,2.097935791015625,0.3879290580064058,0.11331073735952377,0.18998276589065788
1745104518501891600,2.1078916015625,0.20983692865669726,0.16299217537343502,0.004866436992585659
1745104518511848700,2.1178486328125,0.011253215420246123,0.12048749712109565,-0.10707443678583949
1745104518521805800,2.127805908203125,-0.15289455972909927,-0.07350713475942611,-0.17273765311185268
1745104518531762700,2.1377626953125,-0.44758368156738576,-0.20826748738288878,-0.30761954975575206
1745104518541719600,2.147719482421875,-0.5764988152939826,-0.265772750890255,-0.39829233884960413
1745104518551676700,2.1576767578125,-0.47670222402401263,-0.23926877484619616,-0.35964324004687365
1745104518561633500,2.167633544921875,-0.4769774607688188,-0.07098316923975945,-0.2390151654113084
1745104518571589600,2.177589599609375,-0.4197358896989375,-0.043916883137822146,-0.17955622881921007
1745104518581546500,2.18754638671875,-0.24767010796666145,-0.15671090314686298,-0.1118324815005064
1745104518591503600,2.197503662109375,-0.12467566952593624,-0.11609013894498348,0.034904140120744706
1745104518601460700,2.207460693359375,-0.023525325559452175,0.09417582877874374,0.21027935692826286
1745104518611417600,2.21741748046875,0.23810674532949924,0.1728267561674118,0.34347068840302525
1745104518621374700,2.227374755859375,0.360173620596528,0.2050380039423704,0.33736641671117396
1745104518631331600,2.23733154296875,0.37400227599535135,0.20984218935370444,0.3556112811170518
1745104518641288700,2.247288818359375,0.46549924095366146,0.17594810305833816,0.33295755076035854
1745104518651244500,2.25724462890625,0.4356821948388591,0.21002514470517633,0.24023391181761397
1745104518661201700,2.26720166015625,0.3199246123164892,0.2096171484261751,0.08225191102270037
1745104518671158500,2.277158447265625,0.1675636480074376,0.14025193577706813,-0.01044759812578559
1745104518681115600,2.28711572265625,-0.002596446233987808,-0.012293079861998558,-0.07778700403571129
1745104518691072800,2.29707275390625,-0.12914134369790553,-0.10870645843446254,-0.23395537953739984
1745104518701029600,2.307029541015625,-0.3108493254572153,-0.09119184453189373,-0.35750038279928265
1745104518710986500,2.316986572265625,-0.42901798770930616,-0.1047042370557785,-0.2997692929130979
1745104518720942800,2.32694287109375,-0.5329956640562042,-0.16493687970042228,-0.23318870601383968
1745104518730899500,2.3368994140625,-0.6161392632216215,-0.2558949154764414,-0.24998834004746748
1745104518740856600,2.346856689453125,-0.5289689292907714,-0.2786830858677625,-0.18455065783932803
1745104518750813700,2.356813720703125,-0.36706520674116905,-0.1421837806224823,-0.007966868959646671
1745104518760770600,2.3667705078125,-0.1836188568819314,0.0457663103967905,0.13647628969587386
1745104518770727700,2.376727783203125,0.052470703406259415,0.10675824697613716,0.1750926370064728
1745104518780684800,2.386684814453125,0.24951829311661422,0.10590484501719474,0.22228061423683537
1745104518790641700,2.3966416015625,0.3621492315184325,0.14243863216638564,0.3139759330451488
1745104518800597800,2.40659765625,0.49561603720001873,0.24183950211703775,0.33891982016563416
1745104518810554600,2.4165546875,0.6114092390250414,0.32832243830561636,0.2564634726120159
1745104518820511500,2.426511474609375,0.6473252596020698,0.3467331242650747,0.1506852861817926
1745104518830468600,2.436468505859375,0.48139410816729067,0.2665110020369291,0.0867120870356448
1745104518840425700,2.44642578125,0.2417499972026795,0.11669570362269878,0.0012293043329380453
1745104518850382600,2.456382568359375,0.0795861624121666,-0.04210428075790405,-0.14208256700402125
1745104518860339700,2.466339599609375,-0.1307645609855652,-0.02090016468763351,-0.20796099698329343
1745104518870295800,2.4762958984375,-0.3827707253951579,-0.02474456515610218,-0.20209756657630204
1745104518880252700,2.486252685546875,-0.5786627153296023,-0.18419746048748492,-0.17115471303565427
1745104518890209800,2.496209716796875,-0.7898393681574613,-0.35121465359330173,-0.19944743566000833
1745104518900166700,2.506166748046875,-0.8010101659912615,-0.39818332551717756,-0.17131381258750333
1745104518910123500,2.51612353515625,-0.6051327891040593,-0.27358663951158524,-0.04970452662855387
1745104518920080600,2.52608056640625,-0.3718967916160822,-0.02751169178187847,0.056710953058209265
1745104518930037800,2.536037841796875,-0.1289507895618677,0.08413549627959728,0.05925039014164358
1745104518939994600,2.54599462890625,0.0926823022853583,0.07486322554349899,0.06708612526860087
1745104518949950700,2.55595068359375,0.2179302187412977,0.08384323533475399,0.1260218417041935
1745104518959907600,2.565907470703125,0.4425847773015499,0.13086100709736345,0.18339779800977557
1745104518969864700,2.57586474609375,0.6632884793441742,0.3464402787983417,0.1818895306049846
1745104518979821600,2.585821533203125,0.7586164007674903,0.44256841068863867,0.12835591067494823
1745104518989778700,2.59577880859375,0.6769113465052098,0.35950901920795436,0.15503891481403262
1745104518999735600,2.605735595703125,0.44974575497210023,0.19771978988349437,0.12010900093121453
1745104519009692700,2.615692626953125,0.2560024675041437,0.03350713280439377,0.021575050008203832
1745104519019648500,2.6256484375,0.10901216338276863,0.015310966378450393,-0.04425665475251153
1745104519029605600,2.635605712890625,-0.11123283510692417,0.09451485147476196,-0.04456566590275615
1745104519039562800,2.645562744140625,-0.2897457471519708,-0.026424481067061422,-0.0547878760411404
1745104519049519600,2.65551953125,-0.5858388175040483,-0.21268647286891937,-0.11198946216050534
1745104519059476700,2.665476806640625,-0.8383470131516456,-0.395994875562191,-0.11093016236592083
1745104519069433600,2.67543359375,-0.8388251520574093,-0.42978140982985497,-0.08909731993805617
1745104519079390700,2.685390625,-0.7382698513746261,-0.2414373510569334,-0.06788434470789506
1745104519089347600,2.69534765625,-0.4834007718145847,-0.0737730922192335,-0.09609028409793972
1745104519099303700,2.7053037109375,-0.20431151629872618,-0.02041150438785553,-0.09431288089556619
1745104519109260500,2.715260498046875,-0.026247918923757968,0.009312602746486664,-0.032570655671879646
1745104519119217700,2.7252177734375,0.20604396611452103,0.059761518001556393,0.0012355696769431232
1745104519129174800,2.7351748046875,0.48457858342230314,0.20385025546252727,0.06153285678932443
1745104519139131600,2.745131591796875,0.6656692370008677,0.36151918998658655,0.11101475364314392
1745104519149088500,2.755088623046875,0.7431435218255966,0.41371407212615013,0.15530410508885978
1745104519159045600,2.765045654296875,0.6791699390869588,0.3128729402393102,0.19061647895062342
1745104519169002000,2.775001953125,0.5332645806580781,0.17292904749810695,0.15751938825184478
1745104519178959000,2.784958984375,0.3405278398841619,0.13244272333085536,0.13966814453974366
1745104519188916000,2.794916015625,0.1633890657365322,0.12335340794622897,0.14852293878244235
1745104519198873000,2.804873046875,-0.08115677272975444,0.060895490467548365,0.10182650792868807
1745104519208830200,2.814830322265625,-0.36620647101998327,-0.10694938563406467,-0.0018703787154518068
1745104519218787000,2.824787109375,-0.5506663818359374,-0.29482056619822977,-0.08403660248238592
1745104519228744000,2.834743896484375,-0.6903180136322975,-0.3253746944159269,-0.12990527727510778
1745104519238700000,2.844699951171875,-0.7248989131480454,-0.2413403204232454,-0.14974480872759593
1745104519248657000,2.854656982421875,-0.6045697849264368,-0.19527239673137664,-0.1907467907994054
1745104519258614000,2.864614013671875,-0.4334755881726742,-0.16096797606945037,-0.2037164547487162
1745104519268571100,2.874571044921875,-0.2636403419714421,-0.08279869471788406,-0.16529128262866288
1745104519278528000,2.884528076171875,-0.0035550621330738066,-0.006930091524124145,-0.10353826201632618
1745104519288485000,2.894485107421875,0.1875788465540856,0.1352642104923725,-0.050026086733117696
1745104519298442200,2.904442138671875,0.3815039933949709,0.24081658881008625,0.024362671432737258
1745104519308398800,2.91439892578125,0.5729518634021282,0.25753391485512256,0.13860559334214775
1745104519318355200,2.924355224609375,0.544437643514201,0.2717722835659981,0.2012549417397007
1745104519328311800,2.934311767578125,0.5321165066014975,0.23127134635150431,0.20949589666668325
1745104519338269000,2.94426904296875,0.4529827641319483,0.19266659814715384,0.24191528903329743
1745104519348226000,2.95422607421875,0.26184118359498676,0.18502865061461923,0.26504339543608946
1745104519358183000,2.964182861328125,0.10269165512435138,0.09467033429741858,0.21374084076005964
1745104519368140000,2.97414013671875,-0.10345916889812797,-0.024055998370051384,0.11098841362548992
1745104519378097200,2.98409716796875,-0.3372228800546378,-0.10735913547873496,0.03805619267718866
1745104519388054000,2.994053955078125,-0.45774785964190956,-0.17138123353421686,-0.051354321395885194
1745104519398010000,3.004010009765625,-0.5654799200862646,-0.17228081272244453,-0.14113604340152813
1745104519407967000,3.013967041015625,-0.6223200707484037,-0.20944003829360008,-0.24542137919180093
1745104519417923800,3.023923828125,-0.5543780958354473,-0.2549140877455473,-0.29768260456584394
1745104519427881000,3.033880859375,-0.42712241975367066,-0.18438743010163305,-0.29422473746323957
1745104519437838000,3.043838134765625,-0.18810148218870162,-0.05436930356919765,-0.21644593500029294
1745104519447795000,3.053794921875,0.059316039256379,0.10248948361575604,-0.12501995291896165
1745104519457752000,3.063751953125,0.23320253360979257,0.18353870431780814,-0.012387973337527364
1745104519467708200,3.073708251953125,0.3388526001483202,0.16324293526411054,0.08197585229398682
1745104519477665000,3.0836650390625,0.3966092446008697,0.16965572491586206,0.17406910264501346
1745104519487622100,3.0936220703125,0.49054545593746,0.18374211793541906,0.2685740355139598
1745104519497579000,3.1035791015625,0.5167314155409112,0.27059447195827957,0.32737324782200156
1745104519507536000,3.113535888671875,0.4597113052019849,0.29648119288682934,0.3233662772029638
1745104519517493000,3.123492919921875,0.2917605941057205,0.203265149050951,0.297999397163745
1745104519527450000,3.1334501953125,0.07270809333622455,0.04563771558105945,0.19656230867775157
1745104519537407000,3.143406982421875,-0.07141977055873722,-0.09774199682772158,0.0732674442520365
1745104519547363000,3.153363037109375,-0.218009677185677,-0.10415186387002467,-0.047580648076068606
1745104519557320200,3.1633203125,-0.4144797958016395,-0.046453708139061925,-0.11648640825357287
1745104519567277000,3.173277099609375,-0.5083685877999291,-0.13812486062049864,-0.21591957303863019
1745104519577234000,3.18323388671875,-0.5713046807169914,-0.27202479702234267,-0.30240824484825135
1745104519587191000,3.19319091796875,-0.5699357304513454,-0.2980962268680334,-0.3449504055667668
1745104519597148000,3.20314794921875,-0.38151400333233176,-0.16539689842760563,-0.2571212241346948
1745104519607105000,3.21310498046875,-0.18952128585875033,0.021259061127901074,-0.16129097921242935
1745104519617061000,3.22306103515625,-0.034576807862520216,0.10146773935258388,-0.12842731367703528
1745104519627018000,3.23301806640625,0.12004033787548542,0.04281622841954231,-0.03469661658359691
1745104519636975000,3.24297509765625,0.2758901672136038,0.059386254948377605,0.09115408807108179
1745104519646932200,3.25293212890625,0.4248416153401136,0.17591478531062602,0.20521051096506415
1745104519656889000,3.26288916015625,0.5532200118415057,0.323714652249217,0.2923418645923957
1745104519666846000,3.272845947265625,0.5359686154523864,0.3505582355111837,0.3608182021103799
1745104519676803000,3.282802978515625,0.36448099893424657,0.22705226735174655,0.37663594896718855
1745104519686759000,3.292759033203125,0.23952074031326917,0.03114507984817028,0.3069349284924567
1745104519696716000,3.302716064453125,0.12098719027154146,0.0028220716834068296,0.17624262902550397
1745104519706673000,3.3126728515625,-0.01638703464474529,0.07966741095483303,0.07127650789683684
1745104519716630000,3.322630126953125,-0.12218787129819392,0.07482113996744155,0.01506656316332519
1745104519726587100,3.332587158203125,-0.3804916014820337,-0.05977613104879856,-0.12964443438183515
1745104519736544300,3.342544189453125,-0.565826614632085,-0.2969996638029814,-0.26917569120153784
1745104519746500900,3.3525009765625,-0.6105086369235069,-0.3692068218797445,-0.3453660736955702
1745104519756458000,3.3624580078125,-0.5626187585014849,-0.18970014955699444,-0.35700083577930924
1745104519766413800,3.372413818359375,-0.3858072435468435,-0.03162555684149265,-0.31816110977530476
1745104519776371000,3.382370849609375,-0.20104396587014198,0.01003039562702179,-0.2635268899259157
1745104519786328000,3.392328125,-0.10223521659374236,-0.01877718118429184,-0.16186728126304223
1745104519796285000,3.402284912109375,0.052655412323400375,-0.04072656266391277,-0.01171622982211411
1745104519806242000,3.412241943359375,0.24989304471313953,0.10841770462095737,0.1345027246005833
1745104519816199200,3.42219921875,0.4438865440825,0.304697232568264,0.2735108343290165
1745104519826156000,3.432156005859375,0.5642547987380996,0.3445055113434791,0.3775793307645246
1745104519836113000,3.44211279296875,0.5185124172061681,0.25753157676756383,0.432241735528782
1745104519846069000,3.452069091796875,0.43154666593670843,0.12132044081389903,0.39339094014149156
1745104519856025900,3.46202587890625,0.3419101610880345,0.10745967324376106,0.28500195015836505
1745104519865983000,3.47198291015625,0.21929273926615714,0.16178104601800442,0.18643007837776093
1745104519875940000,3.481940185546875,0.04001932771001011,0.11702654301226138,0.07565989234652369
1745104519885897000,3.49189697265625,-0.21334983214847741,-0.009339490753412246,-0.08187962537789717
1745104519895854000,3.50185400390625,-0.462495346429944,-0.22876842361986635,-0.2297523566232994
1745104519905811000,3.51181103515625,-0.6137322020798921,-0.35737609883248805,-0.30430434252684935
1745104519915767000,3.52176708984375,-0.6567793166458606,-0.2461854223668575,-0.3190665341824293
1745104519925724000,3.531723876953125,-0.5588794623753056,-0.1388672034204006,-0.3249398831952363
1745104519935681000,3.541680908203125,-0.4235785366017371,-0.11990765140652655,-0.2902876354763284
1745104519945638000,3.551637939453125,-0.31532910121977326,-0.1068868417918682,-0.21014351038783788
1745104519955595000,3.561594970703125,-0.11363405102975666,-0.09420680843889713,-0.09002048093127087
1745104519965552000,3.57155224609375,0.12623455287311225,0.09134615831077099,0.01827085736365989
1745104519975509000,3.581509033203125,0.3532990586519241,0.2625917827665806,0.17682099516903982
1745104519985466000,3.591466064453125,0.4914741881549358,0.3049310413241386,0.32494302500039335
1745104519995422200,3.601422119140625,0.480983189278841,0.22987141642570494,0.3369895096901804
1745104520005379000,3.611379150390625,0.5166331793308258,0.1681944201916456,0.31807712128628046
1745104520015336000,3.6213359375,0.4271470062056556,0.1896750151157379,0.34308848415240645
1745104520025293000,3.63129296875,0.33921149658858774,0.22815292207002638,0.3446221234604716
1745104520035250000,3.64125,0.20074929377250372,0.16362696614563463,0.18984401500709353
1745104520045207000,3.65120703125,0.020746435430645943,0.02269113975763321,0.014136570570524781
1745104520055164200,3.6611640625,-0.23923129238002,-0.12081015320420264,-0.10309738638103008
1745104520065120000,3.6711201171875,-0.43679501491896805,-0.18520809883475303,-0.17628606630843133
1745104520075077000,3.6810771484375,-0.5248978073943406,-0.19433833075165746,-0.3021208610079251
1745104520085034200,3.6910341796875,-0.58866330034025,-0.1743470976024866,-0.3958241586377844
1745104520094990800,3.700990966796875,-0.551691048708558,-0.19852643009126186,-0.36244686275813726
1745104520104948000,3.710947998046875,-0.5026321995723992,-0.19521978976130486,-0.26858192655947055
1745104520114905000,3.720905029296875,-0.3847842937072739,-0.12922317676246164,-0.1697272375158034
1745104520124862000,3.730862060546875,-0.14482640408575534,-0.032900983604788776,-0.06678277667416259
1745104520134819000,3.740819091796875,0.07089191075973213,0.1079541787624359,0.11374366715038195
1745104520144775000,3.75077490234375,0.2070768162935972,0.19581307947933674,0.2517386360472068
1745104520154732000,3.76073193359375,0.40757078359816223,0.1884036800056696,0.3379122505582869
1745104520164688600,3.770688720703125,0.5400859511107206,0.2052870102673769,0.36489747078064827
1745104520174645500,3.7806455078125,0.6199841751467436,0.2971680061072111,0.34636341416984795
1745104520184602600,3.7906025390625,0.6450554880391806,0.33680560449063773,0.2993348287522793
1745104520194559500,3.8005595703125,0.5340589459061622,0.29482991854846474,0.1885786712463945
1745104520204516400,3.810516357421875,0.2838882532954216,0.16217852090299129,0.08653881282797082
1745104520214472400,3.820472412109375,0.015592705929279327,-0.003218377524614334,-0.03612785496311262
1745104520224429600,3.8304296875,-0.22534078725874424,-0.14190554820299148,-0.12196957063870503
1745104520234386400,3.840386474609375,-0.48177002880759534,-0.1372650289207697,-0.2006178311462514
1745104520244343600,3.850343505859375,-0.6762784554291517,-0.1851607525616884,-0.2622601944583468
1745104520254300700,3.86030078125,-0.7073042197465896,-0.31726036154329773,-0.2750736631989479
1745104520264257500,3.870257568359375,-0.8022359083939343,-0.3134714906543493,-0.3167150026202202
1745104520274214400,3.88021435546875,-0.7128548396110534,-0.272669524666667,-0.3080949487151578
1745104520284171500,3.890171630859375,-0.394528894662857,-0.18621523005068302,-0.22968462514933197
1745104520294127400,3.90012744140625,-0.2211328141748905,0.02816518725454807,-0.09178944509886204
1745104520304084500,3.91008447265625,0.08930435028485953,0.13575111722648142,0.05704608503039926
1745104520314041600,3.92004150390625,0.37697687135934826,0.15419336736798286,0.17732297160811722
1745104520323998500,3.92999853515625,0.48302554529402403,0.25245968033075333,0.22732149448087438
1745104520333955600,3.93995556640625,0.6236924550801515,0.27220892141759395,0.31537505925334985
1745104520343912700,3.94991259765625,0.7275543230276554,0.2924053217500448,0.3978932930620387
1745104520353869300,3.959869384765625,0.76551726619713,0.3720078507751226,0.3880936374509707
1745104520363826400,3.969826416015625,0.6645598144542425,0.3809054429799318,0.3429213839571923
1745104520373782500,3.979782470703125,0.4289859120706096,0.22426760506927965,0.2502416206887923
1745104520383739400,3.989739501953125,0.12960077790319918,0.0354576823502779,0.0961697790749371
1745104520393696500,3.999696533203125,-0.22437274594418702,-0.08233809146881103,-0.07335579838892445
1745104520403653600,4.009653564453125,-0.6087309597264975,-0.1796229921787977,-0.2428584333686158
1745104520413610500,4.019610595703125,-0.8791921606939286,-0.3504892619282007,-0.35126934292260553
1745104520423567600,4.029567626953125,-0.9507312833160162,-0.43409868850708005,-0.4384468372466042
1745104520433524700,4.039524658203125,-0.8754910411536693,-0.3505506367266178,-0.454707542097941
1745104520443480600,4.04948046875,-0.691284812837839,-0.24700609109997748,-0.3409334980756044
1745104520453437400,4.0594375,-0.3969131594508886,-0.14392740941941737,-0.21347499289810656
1745104520463394300,4.069394287109375,-0.10360533590316771,0.02401215922832489,-0.06697338560912758
1745104520473351400,4.079351318359375,0.1640904189389199,0.17477964380085467,0.055620618804544206
1745104520483308500,4.08930859375,0.4106908518474549,0.24438801755607126,0.1955005977303721
1745104520493265700,4.099265625,0.5756569576423615,0.24194880771040916,0.3693554365701973
1745104520503222500,4.109222412109375,0.6863350084107369,0.2630436181873083,0.4247670522665605
1745104520513179600,4.1191796875,0.7463637259811162,0.3562526477605104,0.42739707197658716
1745104520523135500,4.129135498046875,0.7681926959514618,0.39603579209446904,0.4188732449876144
1745104520533092600,4.139092529296875,0.6167430743336677,0.34145898325443264,0.3245652777291834
1745104520543049500,4.149049560546875,0.34331600929796696,0.16669921319782732,0.1599943635306321
1745104520553006300,4.15900634765625,0.027014190588518977,-0.04166764290630817,0.029761881861463186
1745104520562963500,4.16896337890625,-0.29827399458773435,-0.14879472319483755,-0.08251595052005722
1745104520572920600,4.178920654296875,-0.5721943230330944,-0.1648182217568159,-0.20695302551714703
1745104520582877700,4.188877685546875,-0.8324369123250246,-0.2394803717702627,-0.31985074336268005
1745104520592833500,4.19883349609375,-0.9091845633756369,-0.422269134503603,-0.389917747605592
1745104520602790700,4.208790771484375,-0.8915303218066691,-0.45030221981108187,-0.4013686775550246
1745104520612747500,4.21874755859375,-0.7457412101686001,-0.27582886548042296,-0.35410814654510464
1745104520622704400,4.228704345703125,-0.3495704665828496,-0.07973053931891917,-0.243674334595073
1745104520632661500,4.23866162109375,0.00025879706665873524,0.07812485768795013,-0.1323213254408911
1745104520642618400,4.248618408203125,0.17077968744449318,0.1817985826522112,0.018165953950770197
1745104520652575500,4.258575439453125,0.3567202652722597,0.1606494116395712,0.20861235529780386
1745104520662532600,4.26853271484375,0.5374292260568588,0.14370470657944678,0.328880291384086
1745104520672488400,4.278488525390625,0.6743108816832304,0.31484745518267154,0.378969908340089
1745104520682445600,4.288445556640625,0.7056289800107479,0.4682113859891891,0.44001046983413394
1745104520692402700,4.298402587890625,0.6762889037579297,0.3392752094745636,0.43588173599895086
1745104520702359600,4.308359619140625,0.5123503874450922,0.14520049809515476,0.32307840017229317
1745104520712316400,4.31831640625,0.30688688809964804,0.13764905980229378,0.15576511019673198
1745104520722273500,4.3282734375,0.16204868397824465,0.10750058977603912,0.058399782927986234
1745104520732230400,4.33823046875,-0.21290457259900866,0.041088966235518457,-0.035429954093135894
1745104520742187500,4.3481875,-0.7135696368169039,-0.18748130446374414,-0.16600704794889315
1745104520752143600,4.3581435546875,-0.9887719678968191,-0.5050906255751848,-0.30794812412299216
1745104520762100500,4.3681005859375,-1.1433769117403776,-0.546719105514884,-0.44477359258271754
1745104520772057600,4.3780576171875,-1.000467739452794,-0.42960254613161086,-0.5415602614469825
1745104520782014700,4.3880146484375,-0.39438860940933224,-0.15272095672786234,-0.4658576624698937
1745104520791971300,4.397971435546875,-0.14712423269934952,0.18267887261807916,-0.2005246729700826
1745104520801928400,4.407928466796875,0.04248590048663318,0.13305296418368814,-0.019291560447216034
1745104520811885600,4.417885498046875,0.39433541791737076,-0.0448556252926588,0.09894649551296605
1745104520821841400,4.42784130859375,0.5756668945144862,0.17825579547882078,0.2311167037790641
1745104520831798500,4.437798583984375,0.8945020310938357,0.5021037187188864,0.39741825942881404
1745104520841755600,4.447755615234375,1.094674474826455,0.6558633708447218,0.5294020600110292
1745104520851712500,4.45771240234375,0.960686860141158,0.5276093313753605,0.49452298126630484
1745104520861669600,4.467669677734375,0.6846131530541926,0.21848142288327216,0.4147793632701039
1745104520871626500,4.47762646484375,0.3436170746037736,0.01741349161565304,0.33441710191890595
1745104520881583400,4.487583251953125,0.08213175524175166,0.029072365227341652,0.2213238432349637
1745104520891540500,4.49754052734375,-0.19055114036314189,0.08753039941489696,0.006236684166174382
1745104520901496300,4.507496337890625,-0.603288549476862,-0.05855214221179485,-0.19925600474113597
1745104520911453400,4.517453369140625,-0.9800912333130836,-0.4347171126663685,-0.3671803575534373
1745104520921410600,4.52741064453125,-1.1889998681437224,-0.6654279025256633,-0.4635133278334513
1745104520931367700,4.53736767578125,-1.1522253310412167,-0.5506757341861724,-0.5494183180036023
1745104520941324500,4.547324462890625,-0.8592740658462047,-0.24556933629512787,-0.49606239272803065
1745104520951281700,4.55728173828125,-0.5722825493058189,-0.018681904116272924,-0.3395204164072871
1745104520961238500,4.567238525390625,-0.3136181325834244,-0.03507891216576099,-0.20880437073856592
1745104520971195400,4.5771953125,-0.06324230932202189,-0.11718845557570456,-0.1040710171861574
1745104520981151500,4.5871513671875,0.2814296811621636,0.03803834649324417,0.06799383296435699
1745104520991108400,4.5971083984375,0.6468061310987919,0.34573651444315906,0.31860633279215544
1745104521001065500,4.6070654296875,0.8084732684135436,0.543982958549261,0.5010728778338059
1745104521011022600,4.617022705078125,1.0152858808130025,0.4781494271576404,0.5335700298780575
1745104521020979500,4.6269794921875,0.9192547795563936,0.3758914142102003,0.5199345224311575
1745104521030936600,4.6369365234375,0.738637515643239,0.2552706460982561,0.45751697349548337
1745104521040893400,4.6468935546875,0.6769780550658703,0.22505787866413593,0.36151374662648883
1745104521050849500,4.656849609375,0.3938164355445653,0.3346393663674593,0.2300636145295575
1745104521060806400,4.666806396484375,0.11208152435813099,0.2199310371696949,0.07166656666034832
1745104521070763500,4.676763427734375,-0.22889405929353088,-0.16160978110432625,-0.15583499709516763
1745104521080720400,4.686720458984375,-0.6475373679827898,-0.37226679397225376,-0.4151405612653121
1745104521090677500,4.696677490234375,-0.8891167578589171,-0.3868798412144184,-0.48798842839840795
1745104521100634600,4.706634521484375,-0.9853804988276212,-0.2859218049496412,-0.41641514777839184
1745104521110591500,4.716591552734375,-1.0145563974946736,-0.30389234592616554,-0.39785241306237873
1745104521120548600,4.726548583984375,-0.9608644817303865,-0.41867257131636143,-0.5088678790915757
1745104521130504700,4.736504638671875,-0.7970966458093375,-0.41705695281326766,-0.37522538804952055
1745104521140461600,4.746461669921875,-0.4658768055617809,-0.20831249556839465,-0.04104722771933302
1745104521150418400,4.75641845703125,0.0166956256698817,0.14215630809366703,0.1752942057268694
1745104521160375600,4.76637548828125,0.42619127638339993,0.35580256590545173,0.21672056895690037
1745104521170333000,4.7763330078125,0.6519716241031884,0.3257406051188707,0.25716668897792694
1745104521180290000,4.7862900390625,0.7744137624233961,0.25179624798595907,0.46256373549103735
1745104521190247000,4.796246826171875,0.9109371061313897,0.35199849744737144,0.5578345929648727
1745104521200203000,4.806203125,0.9761772747397423,0.49113633450269695,0.4403157363910228
1745104521210159900,4.816159912109375,0.9197241506338119,0.5136982949227095,0.32019962986558675
1745104521220116700,4.82611669921875,0.6219300485175102,0.36027883453667164,0.2223739185434766
1745104521230073900,4.836073974609375,0.3059270666241646,0.05202829340100288,0.12734638657253236
1745104521240031000,4.846031005859375,-0.015095825790427625,-0.09553425765037536,-0.0834088442391716
1745104521249987800,4.85598779296875,-0.2743365080308169,-0.08018471282720566,-0.24120202619740738
1745104521259945000,4.865945068359375,-0.49147769528627394,-0.09044424103498458,-0.2644793135462329
1745104521269902000,4.875902099609375,-0.8982190057903527,-0.18662848702669144,-0.328001389657706
1745104521279858000,4.88585791015625,-1.142146420097351,-0.5331874237686395,-0.43300504805147644
1745104521289815000,4.89581494140625,-1.0669500170767308,-0.6982850469887256,-0.4609791331807151
1745104521299772000,4.90577197265625,-0.9416513202816248,-0.3649637774825096,-0.27272476198524237
1745104521309728800,4.915728759765625,-0.5720265652507543,-0.0009007482320070266,-0.05570740203885361
1745104521319686000,4.925685791015625,-0.1768191137392074,0.11196341440379619,-0.06542054841024801
1745104521329643000,4.93564306640625,0.030522564035654065,0.0270616099268198,-0.014687244989536701
1745104521339600000,4.945599853515625,0.23878471765629947,-0.010184709405899047,0.22046284249145537
1745104521349556000,4.955555908203125,0.5917793134689331,0.14302140049040316,0.39429143264517186
1745104521359512800,4.965512939453125,0.9282511559605597,0.4823275896251201,0.3428256684977561
1745104521369470000,4.975469970703125,1.005558852046728,0.6931517757534981,0.317023739775829
1745104521379427000,4.985427001953125,0.9351666344374417,0.49485798537433145,0.4240544835504144
1745104521389383700,4.9953837890625,0.6249824948906898,0.1874924103796482,0.3838140969682485
1745104521399340800,5.0053408203125,0.3431681252598762,0.015729484051465986,0.1070427995385602
1745104521409298000,5.0152978515625,0.21210436213202774,0.06430266856253147,-0.056930605424568057
1745104521419254800,5.0252548828125,-0.031630123418755825,0.18368191218078136,-0.000882847249135375
1745104521429211000,5.0352109375,-0.3980717549014836,0.0333925665140152,-0.06831858967300504
1745104521439168000,5.04516796875,-0.8350497251719236,-0.3530862926840782,-0.297536729821749
1745104521449124900,5.055124755859375,-1.0459767140876501,-0.6455939057648181,-0.3851889655180275
1745104521459082000,5.06508203125,-1.1038713422387838,-0.5241349332630634,-0.30232615605536844
1745104521469038800,5.075038818359375,-0.8938315844863652,-0.21365385659635067,-0.25801921415403484
1745104521478995700,5.08499560546875,-0.5752198083341121,-0.09982114118933677,-0.26833553231665863
1745104521488952800,5.094952880859375,-0.30438973752167076,-0.0884656344383955,-0.17993987610824405
1745104521498910000,5.104909912109375,-0.021553002573177216,-0.044027357774972915,-0.04857278265226632
1745104521508865800,5.11486572265625,0.30529980157129466,0.1138888295084238,0.06468943939041345
1745104521518823000,5.124822998046875,0.641790933285281,0.31244273212850093,0.1847333574624732
1745104521528780000,5.134780029296875,0.8819342259436845,0.4835340428054332,0.28694711114307864
1745104521538737000,5.14473681640625,0.9591495675712823,0.4740162728756666,0.38057409213371574
1745104521548694000,5.154694091796875,0.8038637287914753,0.3755377784669399,0.3852296993872151
1745104521558651000,5.16465087890625,0.624528905904293,0.22612813824415207,0.3497939000751823
1745104521568607700,5.174607666015625,0.4855138915110379,0.1303852062791586,0.29198979975171385
1745104521578564900,5.18456494140625,0.1821861937303096,0.19128011222481728,0.19145079261660575
1745104521588521000,5.19452099609375,-0.07600242217388004,0.08726210386753082,0.08041068533649667
1745104521598477800,5.204477783203125,-0.3712391314249486,-0.1598258202970028,-0.08713736324300989
1745104521608435000,5.21443505859375,-0.8046744606524705,-0.3134317431658506,-0.19363049300955607
1745104521618392000,5.22439208984375,-0.9708977999668568,-0.44346214465796946,-0.27408790356460955
1745104521628349000,5.234348876953125,-0.9659130703568458,-0.4515560192644596,-0.33812132673170414
1745104521638305800,5.244305908203125,-0.9091952309001237,-0.2759504460334778,-0.40938013457506894
1745104521648263000,5.254262939453125,-0.6592898381620645,-0.18266659765839577,-0.33317002446725963
1745104521658218800,5.26421875,-0.44997894267346705,-0.17369009499847887,-0.1721181877729483
1745104521668176000,5.27417578125,-0.2584463169923052,-0.10657119997143745,-0.11668068871665745
1745104521678133000,5.284133056640625,0.06601882483065127,0.07411854465603827,-0.08141770695457234
1745104521688089900,5.29408984375,0.42138877147249876,0.252029472219944,0.12268310746923089
1745104521698047000,5.304046875,0.5013385795652866,0.34666239711642266,0.28907478908784684
1745104521708004000,5.314004150390625,0.6476245348095894,0.2954278844416141,0.33200945625528694
1745104521717961000,5.3239609375,0.6437451360929757,0.21956512646675108,0.3054053808376193
1745104521727917800,5.333917724609375,0.5990490487435832,0.23440964437723158,0.3763449301313609
1745104521737874000,5.3438740234375,0.730084133766219,0.34281390499472614,0.40324601573422547
1745104521747830800,5.353830810546875,0.5485603494673967,0.42221828109920023,0.3128182874426246
1745104521757788000,5.363787841796875,0.4115438519475981,0.20226737018525598,0.12071761608254164
1745104521767744800,5.373744873046875,0.1487719268411398,0.014937456890940665,-0.07631826492371037
1745104521777702000,5.383701904296875,-0.10396722801811993,-0.07998772895038127,-0.1912145544416271
1745104521787659000,5.393658935546875,-0.3504115205168724,-0.09745207397043705,-0.24458823456959797
1745104521797616000,5.4036162109375,-0.5687941592007875,-0.1497515855282545,-0.31773338588252664
1745104521807572000,5.413572021484375,-0.5610410608559847,-0.26851474307477474,-0.3663094199378043
1745104521817529000,5.423529052734375,-0.7966377961259334,-0.24043372697234153,-0.3110788964293897
1745104521827485700,5.433485595703125,-0.741347359123826,-0.29781916349232196,-0.21687281864285468
1745104521837442800,5.44344287109375,-0.4580827906847,-0.2966717470228672,-0.1278995634758845
1745104521847400000,5.45339990234375,-0.3081026205649599,-0.012107201901078224,-0.10169387625865638
1745104521857356800,5.463356689453125,-0.10530333546008915,0.10262041651904583,0.09699895990807562
1745104521867314000,5.47331396484375,0.259679694712162,0.08259820370972155,0.3020974801323376
1745104521877271000,5.48327099609375,0.3961696841398254,0.2154080067873001,0.25663550471067426
1745104521887227000,5.493226806640625,0.47823710544109344,0.263592484241724,0.2939179182700813
1745104521897184000,5.50318408203125,0.7262532503664493,0.2624468213379383,0.4487456380188465
1745104521907140900,5.513140869140625,0.6708019967794417,0.3818985456705093,0.40138234075419604
1745104521917097700,5.52309765625,0.4693704198312014,0.3474175993978977,0.17661407442009075
1745104521927054800,5.533054931640625,0.3230523158829659,0.10827741936743258,0.07886871659150346
1745104521937012000,5.543011962890625,0.05372632949054241,-0.07823883945643902,0.028891875827591864
1745104521946968800,5.55296875,-0.24452362663447855,-0.11008183844089507,-0.17640808525290338
1745104521956925000,5.562925048828125,-0.38463761524558066,-0.08060439954400062,-0.3922303719295189
1745104521966882000,5.572882080078125,-0.5060551597584039,-0.1242500645250082,-0.34781028850991275
1745104521976839000,5.5828388671875,-0.7329010178178549,-0.2342342878103256,-0.2486068773601204
1745104521986795800,5.592795654296875,-0.77426887405999,-0.3881429930180311,-0.3574574569730088
1745104521996753000,5.6027529296875,-0.5709598128020763,-0.3669634268671274,-0.39935777612403034
1745104522006709800,5.612709716796875,-0.3550900337219238,-0.0808446380406618,-0.14411504094600677
1745104522016667000,5.6226669921875,-0.1524830563187599,0.13299275842905045,0.1541373811307363
1745104522026624000,5.6326240234375,0.07800386165678501,0.10714636951088904,0.1601341007948853
1745104522036579800,5.642579833984375,0.2554804163914174,0.061931263256072996,0.11132241308651863
1745104522046537000,5.652536865234375,0.3734218092262745,0.11101824250817298,0.3215803436342627
1745104522056494000,5.662494140625,0.4861030530432239,0.27029578127264975,0.49749951285906135
1745104522066451000,5.672450927734375,0.5730149187009781,0.3844698574632406,0.3714925581967458
1745104522076407800,5.68240771484375,0.6055688059011474,0.3032587241977453,0.2035557112290524
1745104522086365000,5.692364990234375,0.3877957870155573,0.18290625163316726,0.19899605689700692
1745104522096321800,5.70232177734375,0.2127946094185114,0.07451192788779736,0.16939762196894734
1745104522106279000,5.71227880859375,0.08780212902836501,-0.017079729616641996,-0.06495307702897116
1745104522116234800,5.72223486328125,-0.09984927130527793,0.033304303708672524,-0.24747568137310444
1745104522126191900,5.73219189453125,-0.2759662281244993,0.013785364246368408,-0.18404813341097906
1745104522136149000,5.74214892578125,-0.48195049994103606,-0.15880875220894813,-0.18821023979280144
1745104522146106000,5.752106201171875,-0.6132744483750313,-0.3398509635359049,-0.37576610733009874
1745104522156062700,5.762062744140625,-0.6024432577591389,-0.3353863853424787,-0.41344292703457175
1745104522166019800,5.772019775390625,-0.4689578204423189,-0.12776479464769364,-0.14994692543726412
1745104522175977000,5.78197705078125,-0.36247787895090877,0.03750467800796032,0.01532411812096834
1745104522185933000,5.79193310546875,-0.19120704698860644,-0.034575054296851156,-0.03584934854898601
1745104522195890000,5.801889892578125,-0.06366444372422993,-0.0952098480015993,0.017827186983078717
1745104522205847000,5.811846923828125,0.07439853064119815,0.011643676042556762,0.23468597710058092
1745104522215804200,5.82180419921875,0.28435064664278176,0.18496610677242278,0.3506291818555444
1745104522225761000,5.831760986328125,0.47847913403604175,0.32080665584802626,0.24512489872956647
1745104522235718000,5.8417177734375,0.5964894273886456,0.29374563044309615,0.20847934003528207
1745104522245675000,5.851675048828125,0.49968558819387104,0.24770985545516014,0.2880011137080379
1745104522255632000,5.8616318359375,0.38309509851131585,0.16645312948226929,0.25763304611435156
1745104522265588000,5.871587890625,0.32515608322918416,0.09581599720120429,0.06765307496897875
1745104522275545000,5.881545166015625,0.18600480217039583,0.12299568054974079,-0.07139854510761796
1745104522285502000,5.891501953125,-0.021869886502623555,0.11418167497515677,-0.05910645162630826
1745104522295459000,5.901458984375,-0.2534498604118824,-0.044182840597629544,-0.10486671587480231
1745104522305416200,5.911416259765625,-0.4717782116252929,-0.23523323571979998,-0.2752145695069805
1745104522315373000,5.921373046875,-0.6039752896320074,-0.3016518735229969,-0.3402204179028049
1745104522325330000,5.931329833984375,-0.5888999221077188,-0.22111469399631023,-0.1896861027653329
1745104522335287000,5.941287109375,-0.5623941924979909,-0.0981768811136484,-0.09269267754890025
1745104522345243000,5.951242919921875,-0.4105558638235554,-0.0928314284324646,-0.09709010879024862
1745104522355200000,5.961199951171875,-0.2068904268760234,-0.12201602186262607,-0.05668368145879358
1745104522365157000,5.9711572265625,-0.04102766450233757,-0.022956512695550917,0.0761440226016566
1745104522375114000,5.981114013671875,0.16077325721494853,0.1353951433956623,0.18330429277373478
1745104522385071000,5.991071044921875,0.3975713310986757,0.23538813402056694,0.17847479025805368
1745104522395028200,6.0010283203125,0.4632335975766182,0.2646732652157545,0.18892498219972476
1745104522404984800,6.01098486328125,0.4655290150374174,0.2125198841303587,0.26030641177576036
1745104522414941200,6.020941162109375,0.47185061927437777,0.18317630074620245,0.24359692197730765
1745104522424897800,6.030897705078125,0.4206938480108976,0.20385083998441694,0.12434082981469109
1745104522434855000,6.04085498046875,0.3007457915287465,0.20724457407593727,0.06628582347007468
1745104522444812000,6.05081201171875,0.1298532913595438,0.12865209887623785,0.06317128991242497
1745104522454769200,6.06076904296875,-0.12373984998054802,-0.02347615265548229,-0.03639348362935707
1745104522464726000,6.07072607421875,-0.3358142553657293,-0.1837023704469204,-0.14064214067105202
1745104522474683100,6.08068310546875,-0.489220856270194,-0.21676935826838015,-0.17321608427856117
1745104522484640000,6.090639892578125,-0.5475215810041875,-0.18733985016644,-0.18592346229618414
1745104522494596000,6.10059619140625,-0.5461779113102704,-0.15560089607834815,-0.1807308072902262
1745104522504553000,6.110552978515625,-0.5006184485971927,-0.17794424531161784,-0.19464670258108524
1745104522514509800,6.120509765625,-0.38506490074694155,-0.18075813368856905,-0.13958930714987217
1745104522524467000,6.130467041015625,-0.1924159113217145,-0.0730026923686266,-0.03189047312168404
1745104522534424000,6.140424072265625,0.04274608579277992,0.0780389329701662,0.030867468483187256
1745104522544381000,6.150380859375,0.26229729333203283,0.1851128217667341,0.06794776533292606
1745104522554338000,6.160338134765625,0.4020505588719621,0.21400983042716978,0.15722729170378297
1745104522564295200,6.170295166015625,0.42697574129197746,0.21337387061119079,0.2523777011357248
1745104522574251000,6.1802509765625,0.47736441425979137,0.18779869984984396,0.2579591179972514
1745104522584208100,6.1902080078125,0.4569114088177681,0.21179449246525764,0.19193238385478034
1745104522594165000,6.2001650390625,0.34690205109119415,0.21494798806011675,0.15947788364216683
1745104522604121900,6.210121826171875,0.19782843788973986,0.14463877255916593,0.1609900600370951
1745104522614079000,6.220078857421875,-0.007378419813513755,0.01122632741332054,0.06259049434978514
1745104522624036000,6.2300361328125,-0.21381759579069912,-0.10430851573646067,-0.0563226661266759
1745104522633993000,6.239992919921875,-0.3535702768087387,-0.1517857217043638,-0.11161374244960025
1745104522643950000,6.2499501953125,-0.46193595898151396,-0.14455927758216858,-0.11083658406464382
1745104522653906200,6.25990625,-0.5253583375781774,-0.16103110443353652,-0.1601893746460788
1745104522663863000,6.269863037109375,-0.47417873342838135,-0.18415829752087592,-0.21856574016585945
1745104522673820000,6.27981982421875,-0.37218379186391826,-0.17909341534674167,-0.20431884108865633
1745104522683777000,6.289777099609375,-0.2663852932980284,-0.06990238826572895,-0.1390881709610112
1745104522693734000,6.29973388671875,-0.03829842220153659,0.04444295283854007,-0.07223318756716325
1745104522703691000,6.30969091796875,0.1414344235599041,0.13446867620050906,-0.0034501587201841172
1745104522713648000,6.319648193359375,0.27430914509985593,0.1739934618592262,0.07248756418703123
1745104522723604000,6.32960400390625,0.3604863763401285,0.16453882029354572,0.16433082183236256
1745104522733561000,6.33956103515625,0.37975338686797766,0.18433482313156127,0.21553389818929133
1745104522743518200,6.349518310546875,0.4082102505454793,0.20285306111872195,0.2214589043240994
1745104522753475000,6.35947509765625,0.36326164973974223,0.21997078465819359,0.24048037912566214
1745104522763432000,6.369431884765625,0.23653197029344736,0.14805121135115623,0.2477034987796098
1745104522773389000,6.37938916015625,0.05315050236396491,0.04623392790853977,0.1655166706160642
1745104522783346000,6.389345947265625,-0.12530688010156155,-0.051769350203871724,0.06444222316369413
1745104522793303000,6.399302978515625,-0.2926444642681628,-0.1052355674535036,0.003047039545699954
1745104522803259100,6.409259033203125,-0.4207652327466756,-0.13212065176963805,-0.07869595384048297
1745104522813216000,6.419216064453125,-0.47030799294225867,-0.15025778148472307,-0.19480289778979493
1745104522823173000,6.429173095703125,-0.45735970057453956,-0.1817974136084318,-0.2699561923210509
1745104522833130200,6.439130126953125,-0.39252055051513013,-0.1481909120827913,-0.26893245703019203
1745104522843086800,6.4490869140625,-0.25787936729192734,-0.0813724613070488,-0.23066784576671195
1745104522853044000,6.4590439453125,-0.08521050509996712,0.0037999768048524855,-0.16150312412576748
1745104522863001000,6.4690009765625,0.07188859364688396,0.07574000837802887,-0.08963665097914636
1745104522872958000,6.4789580078125,0.2160620867818594,0.12487024224996567,0.007877583240997046
1745104522882914000,6.4889140625,0.29066527314968404,0.15704232705831528,0.1436055570539087
1745104522892871200,6.49887109375,0.323310199634172,0.18167641757726669,0.21887193830450996
1745104522902828000,6.508828125,0.312679463493824,0.1699064848065376,0.27234756270330396
1745104522912785200,6.51878515625,0.22458149332404134,0.15139643012583254,0.29878165184892713
1745104522922742000,6.528741943359375,0.134192781868577,0.07436696645915508,0.22978278829418122
1745104522932699000,6.538698974609375,0.08259940928611904,0.04525543826520443,0.18011749769747257
1745104522942656000,6.548656005859375,-0.01730064235832542,0.05686404299437999,0.12963725572237744
1745104522952611800,6.55861181640625,-0.09362995839901268,0.028244682231545446,0.05589284160835668
1745104522962569000,6.56856884765625,-0.14972710867412387,-0.03820785784125328,-0.027905568203981965
1745104522972526000,6.578526123046875,-0.27790216462314127,-0.08037585148513317,-0.126313481594529
1745104522982483000,6.58848291015625,-0.31326924608051776,-0.11783026061058044,-0.24318364673499016
1745104522992440000,6.598440185546875,-0.3440098002484068,-0.11709493207335471,-0.26287542201355096
1745104523002397200,6.608397216796875,-0.3135591689378023,-0.10274667324721813,-0.29980394410137085
1745104523012354000,6.61835400390625,-0.14492116969712077,-0.08675824599862098,-0.2763004285149276
1745104523022311000,6.628310791015625,-0.03695931908488274,0.028552725267410276,-0.18573632395993916
1745104523032267000,6.63826708984375,0.042456162935495374,0.10251520257890225,-0.04771958162272349
1745104523042223900,6.648223876953125,0.16942600781321523,0.10431494547724723,0.0730513172833249
1745104523052181000,6.658180908203125,0.17546112325899302,0.1059457615494728,0.17965948826428502
1745104523062138000,6.66813818359375,0.21242921017222105,0.11594576203823088,0.2910523910374381
1745104523072095000,6.678094970703125,0.2486736589860171,0.12934241922795772,0.3055313087722286
1745104523082052000,6.688052001953125,0.25729835253357886,0.1603437066912651,0.33937910824045536
1745104523092009000,6.698009033203125,0.23223924153558909,0.1485369490414858,0.33050274148676545
1745104523101965000,6.707965087890625,0.15827559518031775,0.10607084923386573,0.25496985478708517
1745104523111922000,6.717921875,0.010396817786619066,0.02682370951771736,0.1541245581817813
1745104523121879000,6.727879150390625,-0.08461889588236808,-0.049127895784378046,-0.010135554768238216
1745104523131836000,6.7378359375,-0.1774848841715604,-0.042912674531340594,-0.13788191871009767
1745104523141793000,6.74779296875,-0.25351298877596856,-0.04128945724368095,-0.201844906989485
1745104523151750100,6.757750244140625,-0.35142098982036113,-0.09225976602435111,-0.26854625245789066
1745104523161707000,6.76770703125,-0.39356267997920513,-0.15333528923392295,-0.3629234672939405
1745104523171663600,6.77766357421875,-0.318278671740368,-0.18879706323742865,-0.3781643275782466
1745104523181619700,6.78761962890625,-0.21286416752338408,-0.05160393050909042,-0.2541933905218728
1745104523191576600,6.79757666015625,-0.04985102242715656,0.07893792763650417,-0.13161611804729326
1745104523201533400,6.807533447265625,0.07142857491970062,0.12084639356136322,-0.0696955405820161
1745104523211490600,6.817490478515625,0.11302724424302578,0.05799743093848228,0.037704054771270604
1745104523221447400,6.827447509765625,0.1859054699817672,0.03663023326098919,0.20767324781678614
1745104523231404500,6.837404541015625,0.20799919183552265,0.12880349004566669,0.3286677446119487
1745104523241361700,6.847361572265625,0.26837738043069836,0.18557225597202776,0.3689760818637907
1745104523251318500,6.857318603515625,0.3155891403954476,0.1980056210875511,0.35901144494935866
1745104523261274600,6.867274658203125,0.20617599499635397,0.17424129914045333,0.32542540168985723
1745104523271231700,6.877231689453125,0.079193290637061,0.05191021997928619,0.22665155933005735
1745104523281188600,6.887188720703125,-0.01250818391740322,-0.045852819636464114,0.07406031166277825
1745104523291145500,6.8971455078125,-0.13714520193338392,-0.009703647890686989,-0.10127256384035571
1745104523301102600,6.9071025390625,-0.17422383654899895,-0.0064794251471757885,-0.18739008251633493
1745104523311059500,6.9170595703125,-0.18552958587408064,-0.03374678677916527,-0.24679179076217114
1745104523321016600,6.9270166015625,-0.31359716286063194,-0.08983984540104865,-0.33788843129128215
1745104523330973700,6.9369736328125,-0.32752515044808383,-0.15546470247805116,-0.37331637609042223
1745104523340929500,6.946929443359375,-0.2574310390025377,-0.13142331715524197,-0.2947223299881443
1745104523350886700,6.95688671875,-0.2012357621151954,-0.026887422403693198,-0.18120653504319487
1745104523360843800,6.96684375,-0.0943348187327385,0.02358604277074337,-0.07044073292613029
1745104523370800400,6.97680029296875,0.01814355945587158,0.011681085443496704,0.031381208425294606
1745104523380757500,6.986757568359375,0.0692336952239275,0.0632376696795225,0.1863683382531628
1745104523390714600,6.996714599609375,0.16712065348029137,0.11325813038945197,0.3333502033397555
1745104523400671500,7.00667138671875,0.2521322750072926,0.16575170321464539,0.3555114740043878
1745104523410627600,7.016627685546875,0.25786533876657486,0.1785813741713762,0.3495302807029336
1745104523420584700,7.026584716796875,0.21328794589340686,0.1408592540204525,0.3376612714719027
1745104523430541600,7.03654150390625,0.14569558813571928,0.07962240276932715,0.22610187129173426
1745104523440498700,7.046498779296875,0.09916348099820316,0.04676233569681644,0.056604332612268625
1745104523450455600,7.05645556640625,0.030827684462070463,0.055633039894700045,-0.043340818549226966
1745104523460412400,7.066412353515625,-0.0458709398150444,0.040725978142023084,-0.12014204468429088
1745104523470369500,7.07636962890625,-0.13318616210930048,-0.031017069554328917,-0.20696298065558075
1745104523480326700,7.08632666015625,-0.22304829240739343,-0.09362813176810741,-0.34446934405155477
1745104523490282500,7.096282470703125,-0.2345732739737257,-0.11475333738327026,-0.36131994108743964
1745104523500239600,7.106239501953125,-0.2590391317863017,-0.06564297725558281,-0.27401796186724675
1745104523510196500,7.116196533203125,-0.22493403308875856,-0.03298807736635208,-0.1955405644145794
1745104523520153600,7.126153564453125,-0.14616386323459446,-0.045828854238986964,-0.10932426153924316
1745104523530110700,7.13611083984375,-0.08331197800226509,-0.028103227934241293,0.01902291783997789
1745104523540067600,7.146067626953125,-0.015497501926496625,0.02151157458424568,0.16935864166542886
1745104523550024400,7.1560244140625,0.07641103950738906,0.054960839721560475,0.279292870062869
1745104523559981600,7.165981689453125,0.12937515245378017,0.10408405933082103,0.30130768146151676
1745104523569937400,7.1759375,0.18246143047511576,0.13643793044686317,0.3292311506483704
1745104523579894500,7.18589453125,0.19642744851801544,0.11730652899742126,0.32442060856148597
1745104523589851600,7.1958515625,0.15687402128670364,0.10785364099740981,0.25382702316120265
1745104523599808500,7.20580859375,0.13690905508995055,0.07248246788680553,0.0973609433545731
1745104523609765600,7.215765625,0.0891448488742113,0.06150456227660179,-0.01181041091158986
1745104523619722500,7.225722412109375,-0.0034960984874516723,0.049775546038150785,-0.07072267340635881
1745104523629679600,7.2356796875,-0.06944934726860374,0.01198971300125122,-0.20344490779833868
1745104523639635500,7.245635498046875,-0.10919044255912304,-0.05497545276880264,-0.2842525565631687
1745104523649592600,7.255592529296875,-0.201928420554474,-0.06743512136936188,-0.2904660790494643
1745104523659549400,7.265549560546875,-0.22208967650830744,-0.05666998172700405,-0.2490504198765382
1745104523669506600,7.275506591796875,-0.18033022713270036,-0.056548985695838924,-0.1894675281112082
1745104523679463700,7.285463623046875,-0.1637392674136907,-0.03634440205693245,-0.1177811059729196
1745104523689420500,7.295420654296875,-0.15533778816275298,-0.024752163940668103,0.013003255691658704
1745104523699377700,7.305377685546875,-0.09212883312106132,-0.021818448576331136,0.1752656920184381
1745104523709334500,7.31533447265625,-0.041104163804650304,0.029437106886506078,0.23094262585379183
1745104523719290400,7.325290283203125,0.04769410012159496,0.08262976789176464,0.27274450786532833
1745104523729247500,7.33524755859375,0.1159633707601577,0.10425415520071983,0.29104581516617906
1745104523739204600,7.34520458984375,0.1418834094364196,0.12046470076739788,0.27958363317037
1745104523749161500,7.355161376953125,0.18410404658298937,0.09846797301471233,0.21038511885767802
1745104523759118600,7.36511865234375,0.1843167394855991,0.10455927562713623,0.08240991459600627
1745104523769075700,7.37507568359375,0.14341010754704475,0.12274433613717556,0.0036286205596290527
1745104523779032600,7.385032470703125,0.09411730352453887,0.07312953361868858,-0.06619251916343345
1745104523788989400,7.394989501953125,-0.027495398234203456,0.03323591464757919,-0.17744699984658507
1745104523798945800,7.40494580078125,-0.0982469872077927,-0.037194296884536744,-0.26026814385829494
1745104523808902400,7.41490234375,-0.14297869385983794,-0.06224690507650375,-0.2587372262302786
1745104523818859500,7.424859619140625,-0.21962182509005068,-0.04193301584422588,-0.21024518066402523
1745104523828816600,7.434816650390625,-0.22216098817884922,-0.055260114929080006,-0.1455340226321481
1745104523838773500,7.4447734375,-0.19564824430644512,-0.06555062279701232,-0.08204944725316017
1745104523848730600,7.454730712890625,-0.18032266488075255,-0.018194412860274314,0.011280980210006236
1745104523858687700,7.464687744140625,-0.09508768292665482,-0.019002222111821173,0.11267258558645844
1745104523868644400,7.474644287109375,-0.009753989838436245,0.033301965621113774,0.1641512457480654
1745104523878600700,7.4846005859375,0.022953590086102486,0.07616670935750007,0.1999191082923673
1745104523888557600,7.4945576171875,0.11370474164579063,0.0931494083404541,0.23314139627339317
1745104523898514400,7.504514404296875,0.14214987835288048,0.08823825542330742,0.21462876604311168
1745104523908471600,7.514471435546875,0.15500760636031627,0.08853343897759913,0.14372684534601865
1745104523918428700,7.5244287109375,0.15140644006319343,0.08011924637556075,0.0838510715813376
1745104523928385500,7.534385498046875,0.14431260934472084,0.09426409158408641,0.0403706436320208
1745104523938342700,7.5443427734375,0.06139467216134071,0.08624445125758648,-0.033416952036600556
1745104523948298500,7.554298583984375,-0.016225122081302105,0.026736615756154058,-0.153468048768118
1745104523958255600,7.564255615234375,-0.08402436405532061,-0.04067337117195129,-0.20913188565988092
1745104523968212500,7.57421240234375,-0.19777294484283775,-0.04625204808712005,-0.187977545281779
1745104523978169600,7.584169677734375,-0.1998836899191141,-0.053150575429201125,-0.14936618467355145
1745104523988126500,7.59412646484375,-0.196254356973432,-0.043999300724267956,-0.11988344854703173
1745104523998083600,7.60408349609375,-0.20552783328592775,-0.049018590191006656,-0.06218985939333215
1745104524008040700,7.614040771484375,-0.14851590625345706,-0.038137130692601204,0.01394510311903432
1745104524017997600,7.62399755859375,-0.10246781977321952,0.0013180968612432479,0.08459111282629891
1745104524027953700,7.63395361328125,-0.01575516648199409,0.020566402688622473,0.11203742948807775
1745104524037910500,7.64391064453125,0.05050974206421524,0.048046530288457866,0.14775937053142116
1745104524047867600,7.65386767578125,0.10510923766009508,0.07414893979430198,0.16769085458368063
1745104524057824500,7.663824462890625,0.1638934350620955,0.09931962140798568,0.16824680796600877
1745104524067781400,7.673781494140625,0.18505436957776544,0.1099105735272169,0.10217619814919307
1745104524077738500,7.683738525390625,0.19760339696221052,0.1077495961010456,0.06160257929097861
1745104524087695600,7.693695556640625,0.1446533856064081,0.10346914230287074,0.024019283088855443
1745104524097652700,7.70365283203125,0.12227087340652942,0.06803776343762874,-0.02822749363472685
1745104524107608600,7.713608642578125,0.02968669773340225,0.025862755531072614,-0.11677496113767846
1745104524117565700,7.723565673828125,-0.04543488648533821,0.002405307576060295,-0.1243459626475349
1745104524127522600,7.7335224609375,-0.1009048447728157,-0.01877367405295372,-0.10691935582198202
1745104524137479400,7.7434794921875,-0.21041673783864825,-0.01777589518725872,-0.11106429187329485
1745104524147436500,7.7534365234375,-0.20967435850612817,-0.06882511442303657,-0.09317070685680955
1745104524157393400,7.763393310546875,-0.20604802123513072,-0.08626140239238739,-0.061811892926413564
1745104524167350300,7.773350341796875,-0.24679387312140313,-0.04632686688899994,0.004977203890681266
1745104524177307400,7.783307373046875,-0.22419859495367853,-0.0600707300812006,0.06169528080942109
1745104524187263200,7.79326318359375,-0.13234335460960864,-0.03656652037501335,0.07898373953960836
1745104524197220400,7.803220458984375,-0.07845803516507148,0.012386018842458725,0.09473357225935905
1745104524207177200,7.81317724609375,0.008676642930507659,0.05758417396247387,0.12528258591052144
1745104524217134300,7.82313427734375,0.12406710917353629,0.0701134006679058,0.11335139816347509
1745104524227091200,7.83309130859375,0.1526408772289753,0.09170037857592106,0.06450474873958155
1745104524237048300,7.84304833984375,0.2232902114044875,0.13193185119926928,0.045018579035717994
1745104524247005200,7.853005126953125,0.2504915951281786,0.1300660573273897,0.025750709991343317
1745104524256961300,7.862961181640625,0.23443013917598873,0.11842355032861232,0.00527689922330901
1745104524266918100,7.872918212890625,0.18406422602925449,0.1187163957953453,-0.026919059650972483
1745104524276875300,7.882875244140625,0.1382534554362297,0.07661562216877937,-0.03274977509845048
1745104524286832400,7.892832275390625,0.053142976644635194,0.04214169015884399,-0.044005292073637244
1745104524296789200,7.902789306640625,-0.10724113512225449,0.030611995884776113,-0.056027226844057434
1745104524306746400,7.912746337890625,-0.20327223637886344,-0.0585065495043993,-0.05283769182143733
1745104524316703200,7.922703125,-0.28941023158729073,-0.11536416275799274,-0.030611922819539904
1745104524326660000,7.93266015625,-0.3333323023568839,-0.11979600772559643,-0.011280286090262234
1745104524336616200,7.9426162109375,-0.29119660354740917,-0.1023293246179819,0.02813924909569323
1745104524346573300,7.9525732421875,-0.25558628791868687,-0.02840191861987114,0.020719145564921198
1745104524356530200,7.9625302734375,-0.15583116117026655,-0.024178747966885565,0.05825235554762184
1745104524366487300,7.9724873046875,-0.04479658858180046,-0.009942717343568802,0.036406818034965545
1745104524376444400,7.9824443359375,0.046599875144101674,0.059601359003782266,0.020095058849826455
1745104524386401300,7.9924013671875,0.13964878225214777,0.10363923817276954,0.03347206149101257
1745104524396358100,8.002358154296875,0.20485742321107536,0.1313081663429737,0.03653870078632608
1745104524406315300,8.012315185546875,0.2129465851098299,0.13886954150795935,0.031577808709628875
1745104524416271000,8.02227099609375,0.21321488065719604,0.1080763438373804,0.002696143748797476
1745104524426228200,8.032228271484374,0.16553838925752787,0.09865092836618423,0.002037095318175852
1745104524436185300,8.042185302734374,0.1527402824828401,0.08441255965530872,0.033285434611421076
1745104524446142200,8.05214208984375,0.07978906457312404,0.08079962985515594,0.04376216750014573
1745104524456099300,8.062099365234374,-0.03453114208988845,0.04878302786946297,0.04665566045194864
1745104524466056400,8.072056396484374,-0.09925349736921489,-0.05680500628352165,0.04097498446702957
1745104524476013000,8.082012939453126,-0.19040559441260993,-0.07298457219004631,0.019701840014848856
1745104524485970200,8.09197021484375,-0.2759865402601659,-0.0605237345457077,0.012816263485886156
1745104524495926300,8.10192626953125,-0.2566465740939602,-0.06912497415244578,0.00027483488600701093
1745104524505883100,8.111883056640625,-0.23953875089399515,-0.06600888795852661,-0.03651944809658453
1745104524515840300,8.12184033203125,-0.20827738772239535,-0.05448562342524528,-0.05129722091378644
1745104524525797400,8.13179736328125,-0.11305347466282546,-0.0535655859708786,-0.04265296414922923
1745104524535754200,8.141754150390625,-0.017563129219412804,0.020915362256765366,-0.07556527286563068
1745104524545711400,8.15171142578125,0.06641341363880783,0.07648410474359989,-0.06691266839783638
1745104524555668500,8.16166845703125,0.14583360836692152,0.11539689598381518,-0.033551337272301314
1745104524565624300,8.171624267578125,0.18026308018062262,0.10772738426923752,0.005034888894669711
1745104524575581400,8.18158154296875,0.20511516083180903,0.09373509927392006,0.02934767503738403
1745104524585538300,8.191538330078124,0.18625790014863014,0.10767769990861416,0.07367092875270173
1745104524595495200,8.2014951171875,0.15376852955203502,0.10693944876193999,0.09725432290863245
1745104524605452300,8.211452392578124,0.07961600956115872,0.08542319800257682,0.11575186516763641
1745104524615409400,8.221409423828124,-0.016309987353160978,0.04298047907054424,0.11930820594234391
1745104524625366300,8.2313662109375,-0.09809154091775417,-0.03577858486771583,0.08284099948965012
1745104524635323400,8.241323486328126,-0.17490294138696044,-0.06300152283608913,0.08016591679519042
1745104524645279200,8.251279296875,-0.20920560848321765,-0.05277823498547077,0.03767139461068436
1745104524655236400,8.261236328125,-0.20513499804344026,-0.05717851577103138,-0.004575582553539425
1745104524665193200,8.271193115234375,-0.2059440128713846,-0.05495499450266361,-0.06295667904736474
1745104524675150000,8.281150146484375,-0.1716062744617462,-0.05886193881332874,-0.11734083312582223
1745104524685107200,8.291107177734375,-0.0943781464178115,-0.022982231658697127,-0.1255193538084626
1745104524695064300,8.301064208984375,0.003189151430130005,0.03021101386845112,-0.12292573885237798
1745104524705021400,8.311021484375,0.0718260498046875,0.08618366098105906,-0.10574000984430312
1745104524714978300,8.320978271484375,0.10509345556907355,0.08944470860362053,-0.08046301831193267
1745104524724934400,8.330934326171874,0.147415178469941,0.06904021847844123,-0.0315755619536154
1745104524734891300,8.340891357421874,0.14296002569198607,0.08436872051358223,0.04816675913464278
1745104524744848100,8.35084814453125,0.13998079068548977,0.09383972869217395,0.09161394240148366
1745104524754805200,8.36080517578125,0.12536949700899422,0.10374445211291312,0.11968730492042377
1745104524764762000,8.37076220703125,0.08043784733805805,0.08807575833797454,0.1657565985854715
1745104524774719200,8.38071923828125,-0.005500241384096443,0.04101064030230045,0.16464178747767583
1745104524784676400,8.39067626953125,-0.04536116366200149,-0.022326982620358465,0.1469685124146752
1745104524794633500,8.400633544921876,-0.11283084488809109,-0.03160919022858143,0.09663034579139203
1745104524804589300,8.41058935546875,-0.15826741187386215,-0.011364859101176262,0.04433129089130088
1745104524814546400,8.42054638671875,-0.16632395014464854,-0.02222878294289112,-0.019823237904813138
1745104524824503300,8.43050341796875,-0.1835977410286665,-0.07660919242799281,-0.09971755295069888
1745104524834460200,8.440460205078125,-0.1840104134827852,-0.06991583226919174,-0.15108502608910201
1745104524844417300,8.450417236328125,-0.11575929955542087,-0.03765139300227165,-0.1708521316261962
1745104524854374100,8.4603740234375,-0.03761632168889045,0.01868482672572136,-0.1460709242541343
1745104524864331300,8.470331298828125,-0.005301175148040056,0.06613748277425766,-0.11485681602405383
1745104524874288400,8.480288330078125,0.04729951131343841,0.04114274224936962,-0.08171385862324386
1745104524884244200,8.490244140625,0.087629183614254,0.03814531399905682,-0.005875175643712282
1745104524894201300,8.500201416015624,0.11353110211193561,0.07985445795953273,0.058680426500272005
1745104524904158500,8.510158447265624,0.17476619979739189,0.10145897152423858,0.11288220974914728
1745104524914115000,8.520114990234376,0.15223700913581997,0.10928513510525226,0.18701505692517384
1745104524924072200,8.530072265625,0.08328041382022201,0.09350830478072165,0.20145488475859163
1745104524934029300,8.540029296875,0.038382702951505775,0.02298866139948368,0.1924100113038905
1745104524943986200,8.549986083984376,-0.016102299419231712,0.0021679916888475417,0.15164903491372242
1745104524953942300,8.5599423828125,-0.06568327273335307,0.014274024546146392,0.09145480631701648
1745104524963899400,8.5698994140625,-0.09785762256402522,0.010835282269120216,0.058260593653004615
1745104524973856300,8.579856201171875,-0.1546352659165859,-0.032678865286707874,-0.04092745553087443
1745104524983813400,8.5898134765625,-0.18030392364766448,-0.0744967303186655,-0.13216896615708246
1745104524993770200,8.599770263671875,-0.15961590387336907,-0.08639876503646374,-0.19336091882055625
1745104525003727000,8.60972705078125,-0.12110997640099376,-0.03844400468468666,-0.18982920103045178
1745104525013684200,8.619684326171875,-0.07384082369320094,0.02445347325503826,-0.17230781032722442
1745104525023641300,8.629641357421875,-0.046404608300328255,0.04153261834979057,-0.1668262553772889
1745104525033597200,8.63959716796875,0.009441782084107399,0.018808160844445226,-0.10226287178564816
1745104525043554300,8.64955419921875,0.05225980060193687,0.026735446712374687,0.007301719581801444
1745104525053511400,8.659511474609374,0.06901862770114094,0.0641091918170452,0.07571149466959759
1745104525063468300,8.66946826171875,0.09894318931102752,0.09278057502806186,0.1432085205603391
1745104525073425400,8.67942529296875,0.1194792699266225,0.10978139418959618,0.2041177838249132
1745104525083382300,8.68938232421875,0.07543086936362087,0.0838601864695549,0.22509126947708427
1745104525093339100,8.699339111328126,0.04576163422167301,0.045671617850661275,0.21583017772212623
1745104525103296300,8.709296142578125,0.025032734447717666,0.023499533531069754,0.1747873521832749
1745104525113252000,8.719252197265625,-0.02311780420448631,0.055956280499696726,0.1030742429674603
1745104525123209200,8.729209228515625,-0.05442242199592292,0.03708674485683441,0.0303364668790251
1745104525133166300,8.739166259765625,-0.0955142743082717,-0.020363573592901228,-0.06836571675036102
1745104525143123500,8.74912353515625,-0.13198909781184046,-0.043670799422264095,-0.1426787610651925
1745104525153080300,8.759080322265625,-0.1484802504181862,-0.05187164153456687,-0.1871508304003626
1745104525163037200,8.769037109375,-0.1250870998710394,-0.01610240901708603,-0.20053793431045486
1745104525172995000,8.7789951171875,-0.07891571580469608,0.007688216415047645,-0.1870487582653761
1745104525182952200,8.7889521484375,-0.05548164872527122,0.0082914430052042,-0.15475869136685505
1745104525192908000,8.798907958984374,-0.03588613689541816,-0.010560556980967521,-0.08068062485167757
1745104525202865200,8.808865234375,-0.00010638298392295837,0.01651274338364601,0.0028877573307603596
1745104525212822300,8.818822265625,0.03820785784125328,0.04627893609404564,0.09229416148429737
1745104525222779100,8.828779052734374,0.07962590990066527,0.09099602969884872,0.15637818232746795
1745104525232736000,8.838736083984376,0.07914192577600479,0.08797522057294845,0.20313089167941362
1745104525242693000,8.848693115234376,0.06847783535532653,0.05594342101812362,0.2280811172091402
1745104525252650200,8.858650146484376,0.03712415425777435,0.031412206351757045,0.20132784257913008
1745104525262607000,8.868607177734376,0.03807816704697907,0.03470598720014095,0.14364227233510463
1745104525272563200,8.878563232421875,-0.006200608205795288,0.041430911540985105,0.10099241345841437
1745104525282520000,8.88852001953125,-0.026406945410370825,0.04202010960578918,-0.004745294830948114
1745104525292477200,8.898477294921875,-0.06722118635773658,-0.01768178716301918,-0.07916669489108026
1745104525302434300,8.908434326171875,-0.09018635728377848,-0.04295125297605991,-0.16277173755578694
1745104525312391200,8.91839111328125,-0.10453118204381316,-0.02243570369184017,-0.20790990611687302
1745104525322348000,8.92834814453125,-0.09078618634045124,-0.004326631027460098,-0.2002705338122323
1745104525332305200,8.93830517578125,-0.10288341483678669,-0.002539163088798523,-0.1854604661606252
1745104525342261000,8.948260986328124,-0.10248071578741073,-0.020051438903808592,-0.15406221526898442
1745104525352218000,8.958218017578124,-0.06927585386522114,-0.0360457113713026,-0.07981666496610268
1745104525362175200,8.96817529296875,-0.05126198520362377,0.009478606963157653,0.03805969980852678
1745104525372132000,8.978132080078124,-0.0002636193722486496,0.06336041927635669,0.07909733771560713
1745104525382089200,8.988089111328126,0.03240472452044487,0.05559913762509822,0.15254457724764942
1745104525392046300,8.99804638671875,0.03148760967552662,0.06579904460012913,0.20164889122704044
1745104525402003000,9.0080029296875,0.06375263346433639,0.05940203703939914,0.21218951966483146
1745104525411960000,9.0179599609375,0.07833473757896572,0.05327507859170436,0.18659104109313338
1745104525421916200,9.027916259765625,0.07097213638909161,0.08289747891724109,0.1533275077862665
1745104525431873000,9.037873046875,0.06432498999219387,0.07719546788334845,0.08739086308004335
1745104525441830100,9.047830078125,0.02625562730617821,0.054281040763854975,0.002591550863161683
1745104525451787300,9.057787353515625,-0.019943229288980364,0.008171616017818451,-0.09627716670585795
1745104525461744000,9.067744140625,-0.06433361169006675,-0.017596446967124937,-0.17195139810498802
1745104525471701200,9.077701171875,-0.0776635603191331,-0.000716039314866066,-0.17352283040648325
1745104525481658000,9.087658203125,-0.10039861228372901,0.013169862696528435,-0.1685372788125649
1745104525491615000,9.097614990234375,-0.11118358913771807,-0.011398761370778084,-0.17598260811613872
1745104525501571000,9.107571044921874,-0.11022095465064048,-0.04641512969434261,-0.14453640816323457
1745104525511528200,9.117528076171874,-0.12278759075701236,-0.03727145377397537,-0.025575572620145974
1745104525521485000,9.127485107421874,-0.07918101567737758,-0.004169394639134407,0.05156410995535552
1745104525531442200,9.137442138671876,-0.0401934421679005,0.031183073770999905,0.10830227981405333
1745104525541399300,9.1473994140625,-0.015752828394435345,0.048428807604312896,0.16691004293691367
1745104525551356200,9.157356201171876,0.03769581666588783,0.04743453586995602,0.20460321098798884
1745104525561313300,9.167313232421876,0.07168225741982459,0.05886135429143905,0.20670993747627361
1745104525571270100,9.177270263671875,0.10927402918934821,0.07219020694196224,0.1624390167363919
1745104525581226000,9.18722607421875,0.1269295859325677,0.10299860218167305,0.12933045479552818
1745104525591183000,9.19718310546875,0.13831311320159584,0.09606675709187984,0.06845284704454242
1745104525601140200,9.20714013671875,0.08136142845638096,0.07131050149798393,-0.02296982883485034
1745104525611097000,9.21709716796875,0.051282480002380906,0.029468671068549154,-0.08531719861114397
1745104525621054200,9.22705419921875,-0.02145487596094608,0.009476268875598907,-0.14060204612268135
1745104525631011300,9.23701123046875,-0.08271912667565047,-0.0027408231407403945,-0.16343511510165407
1745104525640968200,9.24696826171875,-0.12204400584809481,-0.011482348001003265,-0.1642012954348698
1745104525650925000,9.256925048828125,-0.15929558587782083,-0.04562953227460384,-0.14635204275045544
1745104525660881200,9.266881103515624,-0.19878822283260522,-0.058787120011448854,-0.105358737175446
1745104525670838000,9.276838134765624,-0.18603395519964397,-0.06561959637999534,-0.053454307616129515
1745104525680795100,9.286795166015626,-0.14746606840696186,-0.035766309908032416,0.02304705878952518
1745104525690752000,9.296751953125,-0.0869271728247404,0.0225303962379694,0.0719336931639351
1745104525700709000,9.306709228515626,-0.017879355561733246,0.05013853413164615,0.12221770018087699
1745104525710666200,9.316666259765626,0.060332011365890496,0.03870177883803844,0.15164589310856535
1745104525720623400,9.326623291015625,0.0770235453825444,0.05567746355831623,0.1585073946421966
1745104525730580000,9.336580078125,0.10507767347805201,0.08982230974435806,0.13187170024355874
1745104525740536300,9.346536376953125,0.16049275977313518,0.11733049439489841,0.14526981873800976
1745104525750493000,9.356492919921875,0.1466279370823875,0.11758534593880175,0.07170711786644533
1745104525760450000,9.366449951171875,0.1208516542583704,0.08444353931546211,0.0157940189213492
1745104525770407200,9.3764072265625,0.07346504918336867,0.04141162231862545,-0.0427979255778715
1745104525780364000,9.386364013671875,-0.004240194853022694,0.01917933224439621,-0.0870421592402272
1745104525790321200,9.396321044921875,-0.05774433296024799,-0.012169161221385002,-0.13030499891610817
1745104525800278300,9.4062783203125,-0.10648403314463793,-0.036764088773727416,-0.12043505454780533
1745104525810234000,9.416234130859374,-0.18804544115252791,-0.04128068941533565,-0.09759582982268183
1745104525820191200,9.426191162109374,-0.20284962705262005,-0.060113984701037404,-0.09292926278375088
1745104525830148000,9.436148193359376,-0.1660637648385018,-0.053936172848939895,-0.05949261966599151
1745104525840105000,9.44610498046875,-0.15291669849567113,-0.019885434687137604,0.02358428920507431
1745104525850062000,9.45606201171875,-0.07977087132930755,0.009521861582994461,0.07031931676985695
1745104525860019200,9.466019287109376,-0.009801336111500858,0.02065291192829609,0.08386718246592208
1745104525869976000,9.47597607421875,0.03450133147351443,0.05289630840718746,0.10996601177519187
1745104525879933200,9.48593310546875,0.08979768675975501,0.04365910898447036,0.10771898176707327
1745104525889889300,9.49588916015625,0.1206296090055257,0.07418868728280067,0.10501357699958606
1745104525899846100,9.50584619140625,0.13334233905170112,0.10317512779235839,0.08509089730829
1745104525909803300,9.51580322265625,0.14906886396110056,0.08844985234737396,0.05356167698074132
1745104525919760100,9.525760009765625,0.08605038999021053,0.06951952642798423,0.019554595297574997
1745104525929717000,9.535717041015625,0.04140760373063385,0.039196284356713296,-0.016074041439127176
1745104525939674000,9.545674072265625,-0.01052314758002758,0.006193009421229362,-0.0564239345440641
1745104525949631200,9.55563134765625,-0.0930487975101918,0.0011988543957471847,-0.07302353422725573
1745104525959588000,9.565588134765624,-0.11249934791140258,-0.015594459494948386,-0.07411796013414859
1745104525969544200,9.575544189453124,-0.14965674685165284,-0.04163666324615478,-0.08488861620184034
1745104525979501300,9.585501220703126,-0.19185235915482043,-0.040709027007222176,-0.09101776660662143
1745104525989458200,9.595458251953126,-0.1774714401680976,-0.045133857712149617,-0.05304945314228535
1745104525999415000,9.6054150390625,-0.13040566454529762,-0.024839257702231405,-0.005814166171476245
1745104526009372200,9.6153720703125,-0.11304119970314204,-0.014701894569396972,0.025455471638124436
1745104526019329000,9.6253291015625,-0.04793320610709488,0.018759645527601242,0.040568394693825394
1745104526029286100,9.6352861328125,0.011541421244479716,0.03201660198569298,0.06406696011051535
1745104526039243300,9.6452431640625,0.06956804174482822,0.06035597676336765,0.09504976206906139
1745104526049199000,9.65519921875,0.12542378447949887,0.08446692019104957,0.09457697519185021
1745104526059156200,9.66515625,0.13342362412698566,0.0830979699254036,0.06691623032810166
1745104526069113300,9.67511328125,0.1380968401024118,0.0799129101485014,0.050393148213531816
1745104526079070200,9.6850703125,0.12033727499544619,0.09526888471245765,0.03596212474107742
1745104526089027000,9.695027099609375,0.07616846292316913,0.0640659371972084,0.028485139923915267
1745104526098984200,9.704984130859375,0.011453706428408622,0.043321839854121205,-0.0255527762664482
1745104526108941000,9.714941162109374,-0.023393735069036484,0.03083002254962921,-0.053692153226304794
1745104526118898200,9.724898193359374,-0.08762911054901779,-0.006921323695778846,-0.038368236034736034
1745104526128854000,9.73485400390625,-0.14113098363392054,-0.0269832839936018,-0.023917685877904295
1745104526138811100,9.74481103515625,-0.15295308498330412,-0.04597381566762924,-0.04579957334557548
1745104526148768300,9.754768310546876,-0.16306933226287365,-0.05624795692265033,-0.04768940568016842
1745104526158725400,9.764725341796876,-0.15490480357296765,-0.021757073777914047,-0.032266284164134414
1745104526168682000,9.774681884765625,-0.11221826594769954,-0.014202712875604628,-0.0017771292077377438
1745104526178638800,9.784638916015625,-0.0514046085447073,-0.002909749966859817,2.3746201768517492e-7
1745104526188596000,9.794595947265625,-0.0004085808008909225,0.023929157119989393,0.02201830026367679
1745104526198553000,9.804552978515625,0.05195760278496891,0.06497019256055354,0.05592793118804693
1745104526208509000,9.814509033203125,0.08331073589324951,0.09236147283315659,0.07636729169720784
1745104526218466000,9.824466064453125,0.11584580879509448,0.0778168146520853,0.055934835852868854
1745104526228423200,9.834423095703125,0.11876841824352741,0.07284487145841122,0.05904306753389537
1745104526238380000,9.844380126953125,0.09868366159200667,0.07772329114973545,0.05636721765445545
1745104526248337200,9.854337158203125,0.08850775654707103,0.06895254019498824,0.02888840522887185
1745104526258294000,9.8642939453125,0.035267749268747865,0.05524141022861004,0.0025884273243136705
1745104526268251000,9.8742509765625,-0.01623326885513961,0.027171500042080878,-0.013566405999753624
1745104526278208000,9.8842080078125,-0.06169855047874152,-0.010289923346042633,-0.028189791972842066
1745104526288164000,9.8941640625,-0.1406797327350825,-0.03215104202032089,-0.03786099889865145
1745104526298121000,9.904120849609376,-0.15948139077350496,-0.0364729968726635,-0.05442390156695619
1745104526308078000,9.914078125,-0.1558200917869806,-0.043756724140048026,-0.0322351583735086
1745104526318035200,9.92403515625,-0.15591069267988203,-0.02064239053428173,-0.018347265334427355
1745104526327992000,9.933991943359375,-0.11002338625192641,-0.016231003832817077,-0.014691811566799879
1745104526337949000,9.943948974609375,-0.079715926271677,0.01138882449865341,-0.028836930769961324
1745104526347906000,9.953906005859375,-0.02306285914685577,0.007858896806836128,0.00577869299929589
1745104526357863000,9.96386279296875,0.05033266846425831,0.039490298867225646,0.03486651152409613
1745104526367819000,9.973819091796875,0.06811437233779578,0.09321312122642994,0.03237129717487842
1745104526377775900,9.98377587890625,0.13564948348291217,0.07358370712697505,0.03877489887317642
1745104526387733000,9.99373291015625,0.13396017868909985,0.08416764498353003,0.04352554573267698
1745104526397690000,10.003690185546875,0.09753449155688285,0.08560556883215904,0.06938499506181106
1745104526407647200,10.013647216796874,0.09617255555391312,0.057979310759901995,0.06397639575023203
1745104526417604000,10.02360400390625,0.047547860051319,0.0371001888602972,0.04217959275012836
1745104526427561000,10.03356103515625,-0.019096257070824504,0.03240004834532738,0.024585447337944058
1745104526437518000,10.04351806640625,-0.06362286960482597,-0.003561491873860359,0.020050434256810693
1745104526447474000,10.053473876953126,-0.12134842479936778,-0.02468786653280258,-0.030424547021277247
1745104526457431000,10.06343115234375,-0.1595404274843633,-0.027670097213983533,-0.040346787832397965
1745104526467388000,10.073387939453125,-0.19109189617633818,-0.02851297777891159,-0.03048276174822822
1745104526477345000,10.083344970703125,-0.1621726756840944,-0.0341331557482481,-0.03878370323413983
1745104526487302100,10.09330224609375,-0.1258703592032194,-0.03539630755186081,-0.05329436781406402
1745104526497259300,10.10325927734375,-0.08115735725164414,-0.0019447043269872665,-0.05644525132672861
1745104526507216000,10.1132158203125,-0.019298063253238795,0.016229834789037705,-0.03646634793616831
1745104526517173000,10.123173095703125,0.012161562436819076,0.04590425756275653,-0.00006597790829837322
1745104526527128800,10.13312890625,0.06686170539557934,0.058927989786863325,0.000982362100854516
1745104526537086000,10.1430859375,0.10816931935045868,0.07446516613662242,0.017084990313649177
1745104526547043000,10.15304296875,0.10148695550970732,0.07847673986554145,0.05818721788953989
1745104526557000000,10.163,0.11083178002536297,0.0963736310839653,0.08317691691312938
1745104526566957000,10.17295703125,0.12505436664521694,0.07952537213563919,0.06824501298014074
1745104526576914200,10.1829140625,0.05359367955420166,0.06297814196050167,0.0642614415029995
1745104526586870800,10.192870849609376,0.004503668094798922,0.04570844272971153,0.06996705099977553
1745104526596828000,10.202827880859376,-0.034815292793512344,0.009155366358160971,0.0540708868782036
1745104526606784000,10.212783935546875,-0.08713124402947724,-0.009118541479110717,0.005459726710617542
1745104526616740900,10.222740966796875,-0.1396563810367137,-0.03903612535893917,-0.030705519387125967
1745104526626698000,10.232697998046875,-0.1550462578702718,-0.035547114199399946,-0.04575500355148688
1745104526636655000,10.242655029296875,-0.16240180826485157,-0.026062662017345428,-0.06103429615003988
1745104526646612000,10.252612060546875,-0.1471633226007223,-0.024784312644600865,-0.08739440674399956
1745104526656569000,10.262569091796875,-0.10352058022916316,-0.023808745610713958,-0.09193614182686433
1745104526666526000,10.27252587890625,-0.04821538404934108,0.02055705033838749,-0.04857566872909665
1745104526676482800,10.28248291015625,-0.014742190047167241,0.04514554814994335,-0.03325206206478178
1745104526686439000,10.29243896484375,0.05061725755929947,0.044102176576852795,-0.007773026887979358
1745104526696396000,10.30239599609375,0.08953932808451354,0.0659264703720808,0.018295078489463774
1745104526706353000,10.312352783203124,0.11422259150743484,0.09342705623805522,0.06000471564028412
1745104526716310000,10.32231005859375,0.11777991866283118,0.0830494546085596,0.10957056445050983
1745104526726267100,10.33226708984375,0.11834347082972525,0.08133972808122635,0.08951684225806966
1745104526736224000,10.34222412109375,0.07846446490585804,0.04969780462682247,0.09496948164077475
1745104526746181000,10.35218115234375,0.01829611966907978,0.049040802022814745,0.10852898297570646
1745104526756138000,10.362137939453126,-0.03630808863453567,0.016380641436576842,0.07293876028694211
1745104526766094000,10.372093994140625,-0.08678096928708255,-0.00772854842543602,0.02623036500075832
1745104526776051000,10.382051025390625,-0.1232347500026226,-0.03360825509130955,-0.018276245924830434
1745104526786008000,10.392008056640625,-0.15666465285234152,-0.04133329638540745,-0.030802312558796254
1745104526795965000,10.40196484375,-0.16144026975631712,-0.037376667714118954,-0.06818888061242177
1745104526805922000,10.411922119140625,-0.1282896953046322,-0.006637830579280853,-0.10089925528224557
1745104526815879200,10.421879150390625,-0.08546466252412646,-0.003133037328720093,-0.11589741111816838
1745104526825836000,10.4318359375,-0.04468669846653938,0.009507833057641982,-0.07428524299245327
1745104526835792100,10.441792236328125,-0.001660590155981481,0.018096213182806967,-0.047413529614545404
1745104526845749200,10.451749267578125,0.046144532592035825,0.025140286475419996,-0.04245119449943304
1745104526855705900,10.461705810546874,0.08666950826924294,0.058937926658988,0.021734259157907217
1745104526865663000,10.4716630859375,0.0894242503374815,0.10724047753512858,0.055599813478533176
1745104526875620000,10.4816201171875,0.10775898498389869,0.07741700167953967,0.11340948502626269
1745104526885577000,10.491576904296876,0.08403210897035897,0.05252046083211898,0.11634718244597315
1745104526895534000,10.5015341796875,0.031952998697571455,0.05335983426570892,0.10026082951454444
1745104526905491200,10.5114912109375,0.018500702330470083,0.04104571161568164,0.11840234314380213
1745104526915447000,10.521447021484375,-0.00510050147678703,0.022017186018824575,0.09005160672189667
1745104526925404200,10.531404052734375,-0.08732691273204982,0.010326748225092887,0.031734259646665305
1745104526935361000,10.541361083984375,-0.10582301195263862,-0.022575404423475266,-0.024391787929367272
1745104526945318000,10.55131787109375,-0.10646306342184543,-0.02463350599706173,-0.0422835463149473
1745104526955275000,10.56127490234375,-0.13157763093411923,-0.014711831441521644,-0.0759343801726587
1745104526965232000,10.571232177734375,-0.089145433396101,-0.015720716223120688,-0.1210961305387318
1745104526975189000,10.58118896484375,-0.059576809084415434,-0.008047112855315208,-0.12364102924857288
1745104526985146000,10.59114599609375,-0.05627426040768623,0.019230770170688628,-0.10263585155019536
1745104526995102000,10.60110205078125,0.004947429806925356,0.02118307328224182,-0.04989398478604853
1745104527005059000,10.61105908203125,0.040571664363145826,0.03523088785707951,-0.027593013389781117
1745104527015016200,10.62101611328125,0.06432604943811893,0.04508651143908501,-0.0002279270043596625
1745104527024972800,10.630972900390624,0.07490056187920272,0.06060790569782257,0.07914472052128985
1745104527034930000,10.640929931640626,0.08021510796546935,0.06041793608367443,0.09447948790043592
1745104527044887000,10.650886962890626,0.028320670077204704,0.04960720373392105,0.0941127734798938
1745104527054844200,10.66084423828125,0.029571619986370205,0.044939211922883984,0.10931023301389067
1745104527064801000,10.670801025390626,-0.00004208557605743408,0.033254034826159476,0.11823862221576273
1745104527074757000,10.680757080078125,-0.040199871908687054,0.03698912970125675,0.0864185109165497
1745104527084714000,10.6907138671875,-0.060309215012192725,0.0018254618614912033,0.010071640952862799
1745104527094671000,10.700671142578125,-0.07944112791828811,-0.003391396003961563,-0.007448142315167933
1745104527104628000,10.7106279296875,-0.09891330562941729,-0.002896305963397026,-0.03575796220479533
1745104527114584800,10.720584716796875,-0.08859649427644908,-0.010187047493457793,-0.08666700578490272
1745104527124542000,10.7305419921875,-0.0822345214964822,0.0020984335839748383,-0.11702517303908243
1745104527134499000,10.7404990234375,-0.06327624812424182,0.003767828100919723,-0.11940881677260622
1745104527144456000,10.7504560546875,-0.04205452333204448,-0.005037994167208671,-0.09963157343398779
1745104527154412000,10.760412109375,-0.017557868522405623,0.01906067430078983,-0.06840628622276708
1745104527164369200,10.770369140625,0.02418229163084179,0.02757657371163368,-0.03283241188060492
1745104527174325500,10.780325439453126,0.03753974932134151,0.05239478862583637,0.03759688633605838
1745104527184282600,10.79028271484375,0.04118482782542705,0.04758183538615703,0.0958582837066613
1745104527194239500,10.800239501953126,0.05018756090514362,0.035739421901106835,0.12500274605583397
1745104527204196400,10.8101962890625,0.05078793795108795,0.057409401917457574,0.11262348574772477
1745104527214153500,10.820153564453125,0.05720189664661884,0.04751052371561527,0.12564504428105427
1745104527224110300,10.8301103515625,0.044268180793523786,0.06439385397732257,0.1267033394286409
1745104527234066400,10.84006640625,0.023861352580785748,0.04402268159985542,0.07795008564293385
1745104527244023300,10.850023193359375,-0.014136150445416568,0.014519523739814758,0.003921301629580557
1745104527253980400,10.85998046875,-0.04610942474603653,0.010173603489995003,-0.02130116497026756
1745104527263937500,10.8699375,-0.08963285158686339,0.00779518392086029,-0.0645533553879708
1745104527273894700,10.879894775390625,-0.09784830674640833,-0.008220131334662437,-0.11372856091279536
1745104527283851300,10.889851318359375,-0.08250877186059952,-0.027965280768275258,-0.13928937435522676
1745104527293808400,10.899808349609375,-0.09601882629692554,-0.02344926464855671,-0.1189546980632469
1745104527303765500,10.909765625,-0.09752042649891227,-0.01862286740541458,-0.08262936603296547
1745104527313721300,10.919721435546874,-0.05083586874604225,-0.018611176967620848,-0.05179601901508867
1745104527323678500,10.929678466796876,-0.016744798573851586,0.033915129083395,-0.009747213037777692
1745104527333635300,10.93963525390625,0.009133154526352882,0.04201367986500263,0.043170485217310484
1745104527343592400,10.949592529296876,0.033917978627607225,0.04725859478116035,0.09000042452393099
1745104527353549600,10.959549560546876,0.046951063201949,0.06311959625780582,0.11065346431639045
1745104527363506400,10.96950634765625,0.054762613735720514,0.07941723558604717,0.13723514523915945
1745104527373463300,10.97946337890625,0.07505019948296249,0.07011281614601611,0.14347044116584584
1745104527383420400,10.98942041015625,0.06460135924816131,0.06875146466493606,0.1371240495475009
1745104527393376300,10.999376220703125,0.045509120765328405,0.04986614693105221,0.08782070586467161
1745104527403333400,11.00933349609375,-0.00016585808619856834,0.03741524615883827,0.02889149223510176
1745104527413290500,11.01929052734375,-0.045499695349857205,-0.003300210589170456,-0.011743811948783696
1745104527423247400,11.029247314453125,-0.07137012273073196,-0.0018085107266902923,-0.056721949376259
1745104527433204500,11.03920458984375,-0.09893844007067382,-0.009295067089796065,-0.10273492801049723
1745104527443161600,11.04916162109375,-0.10909333886019885,-0.02694879720211029,-0.13298479431830346
1745104527453118200,11.0591181640625,-0.12138473822176456,-0.030053777480125426,-0.12109963767006993
1745104527463075300,11.069075439453124,-0.1116846705276519,-0.02014379336237907,-0.08928071368094533
1745104527473031400,11.079031494140626,-0.06050802551992237,0.0015828852772712706,-0.08407817660178989
1745104527482988300,11.08898828125,-0.0384820716727525,0.014632920986413955,-0.03293550692889839
1745104527492945400,11.0989453125,-0.017903320959210395,0.039353520745038985,0.025025026065297423
1745104527502902500,11.108902587890626,0.031080782440304756,0.04193126227855682,0.07649340229490771
1745104527512859400,11.118859375,0.04387187495231628,0.0548117866396904,0.10078865278093144
1745104527522816500,11.12881640625,0.07163016190640628,0.04881751466095447,0.1173101091939956
1745104527532773400,11.1387734375,0.08377301964275538,0.07768997340202331,0.15243786547016352
1745104527542730200,11.148730224609375,0.06848726077079773,0.0820212806046009,0.12717344115842133
1745104527552686300,11.158686279296875,0.06176759712696075,0.05626315449178219,0.09697227283054963
1745104527562643500,11.1686435546875,0.026219934938289224,0.030206922215223312,0.03220909235049039
1745104527572600300,11.178600341796875,-0.0059164940347895024,0.026293548163771628,-0.025569581270776687
1745104527582557400,11.188557373046875,-0.053655529276654124,0.012500585132837295,-0.03593017696654424
1745104527592514600,11.1985146484375,-0.07787344021014869,0.013075170150399208,-0.09860217558732255
1745104527602471400,11.208471435546874,-0.09664477617554366,-0.030925299617648123,-0.13085359097588806
1745104527612428500,11.218428466796874,-0.1298964363815263,-0.03868891935646534,-0.11946451074890792
1745104527622385400,11.228385498046874,-0.1367892281025648,-0.025347791746258733,-0.0963641326032579
1745104527632341500,11.238341552734376,-0.09626724810004234,-0.011857611054182052,-0.06343388637136668
1745104527642298400,11.24829833984375,-0.0732073480952531,0.0003021978169679642,-0.037182222854252905
1745104527652255500,11.25825537109375,-0.0655821869790554,0.012466098341345787,0.011723700742516666
1745104527662212400,11.26821240234375,-0.015450667110085487,0.042300680112838746,0.07115145674506201
1745104527672169500,11.27816943359375,0.02718494404554367,0.058636897885799406,0.10803655981626362
1745104527682126600,11.288126708984375,0.08365856295023114,0.059252399435639376,0.12980901382640003
1745104527692083500,11.29808349609375,0.09622165539264678,0.08348726150393486,0.14743138068607076
1745104527702040300,11.308040283203125,0.09056472560949623,0.08630991770923137,0.12486686298279091
1745104527711996700,11.31799658203125,0.08027476573083549,0.06337620136737823,0.08302218300914391
1745104527721953300,11.327953369140625,0.06800853734314441,0.05091477920114994,0.037450938526727255
1745104527731910400,11.337910400390625,0.027174459184147418,0.04801145897507667,-0.004517550489678978
1745104527741867500,11.347867431640625,-0.011913067568466067,0.022070377510786054,-0.02002360104881227
1745104527751824400,11.357824462890624,-0.06126081664860248,0.013792378509044646,-0.07968591472590342
1745104527761781500,11.367781494140624,-0.08767886797487735,-0.016465981632471084,-0.11364185074372217
1745104527771738600,11.377738525390624,-0.1282797584325075,-0.03982289182245731,-0.10223775561070068
1745104527781695500,11.387695556640624,-0.13889460288397967,-0.030680384945869443,-0.10867483945349231
1745104527791651600,11.397651611328126,-0.12479947856869548,-0.016599837145209313,-0.07948377974992618
1745104527801608400,11.4076083984375,-0.09806297241039573,0.0013777180939912796,-0.038552269098442046
1745104527811565300,11.4175654296875,-0.04418232914097607,0.011602174988389015,0.01209874459998682
1745104527821522400,11.4275224609375,-0.029720600003004072,0.011638415345549583,0.06921243324019015
1745104527831479600,11.4374794921875,0.01953822868466377,0.03126782944500446,0.08300800835331902
1745104527841436400,11.4474365234375,0.050524830035492775,0.06510054094195365,0.11119294148795306
1745104527851393500,11.4573935546875,0.08198156964872032,0.06898176628947257,0.12654122593579814
1745104527861350700,11.4673505859375,0.09812719675302504,0.07390753225386143,0.11165177290504798
1745104527871306500,11.477306396484375,0.08579546538107097,0.05919219368100166,0.08629846473345533
1745104527881263600,11.487263671875,0.06876615077741444,0.04732055410146713,0.03525766626615077
1745104527891220200,11.49722021484375,0.03159633074700832,0.044407297003269196,0.024692360044829546
1745104527901177300,11.50717724609375,-0.021844752061367035,0.03806231189072132,-0.017347769435681403
1745104527911134500,11.517134521484374,-0.04788929390013218,0.008233575338125229,-0.06758896022420376
1745104527921091600,11.527091552734374,-0.10956446350328623,-0.023512977534532544,-0.08422830739589407
1745104527931048400,11.53704833984375,-0.13572137967534362,-0.03399170145094395,-0.10364349422277883
1745104527941005600,11.547005615234376,-0.14050452229864893,-0.0326081381380558,-0.09082808925341815
1745104527950962400,11.55696240234375,-0.13537936130464076,-0.02253682597875595,-0.06917414705641567
1745104527960918500,11.56691845703125,-0.10351305450983345,-0.03474924181997776,-0.06541735180616379
1745104527970875400,11.57687548828125,-0.07561024451851844,-0.018508885636925695,-0.007711451160162687
1745104527980832300,11.586832275390625,-0.041184243303537364,0.00729717127084732,0.030546712096221743
1745104527990789400,11.596789306640625,0.008349895194172858,0.02799918303787708,0.06348579922169446
1745104528000746500,11.60674658203125,0.06014850802514702,0.06349193670153618,0.09946443670615553
1745104528010703400,11.616703369140625,0.08950495089087634,0.06949731459617614,0.11558518509753048
1745104528020660500,11.626660400390625,0.10206577831096947,0.07549217109680176,0.10675539743192493
1745104528030616600,11.636616455078125,0.11281155566573142,0.061253217864036556,0.08699320553196593
1745104528040573400,11.646573486328125,0.09477196804098785,0.05836217259764671,0.07693002188019454
1745104528050530600,11.656530517578124,0.06409099857322871,0.06833411603569985,0.021381865523662415
1745104528060487400,11.6664873046875,0.024170564660429952,0.0474742833584547,0.00981194883706048
1745104528070444300,11.6764443359375,-0.01594166549742222,0.0248263982206583,-0.03420382809797302
1745104528080401400,11.6864013671875,-0.07692885283641517,-0.003633388066291809,-0.046193212305661285
1745104528090358500,11.696358642578126,-0.0987479589998722,-0.03178513131737709,-0.07194045169828459
1745104528100315400,11.7063154296875,-0.16606332644708455,-0.015922960796952247,-0.08521165587743744
1745104528110271500,11.716271484375,-0.14826806897222994,-0.016947627669572828,-0.0878307158020325
1745104528120228600,11.726228515625,-0.12010529287047683,-0.015250176101922988,-0.05055522517375648
1745104528130185500,11.736185546875,-0.12325520826876163,-0.015488661032915114,-0.01591441216431558
1745104528140142300,11.746142333984375,-0.05726908013131469,-0.005545359167456626,0.01599244583658874
1745104528150099500,11.756099365234375,-0.01764317218568176,0.011865209838747977,0.038268995177652684
1745104528160056300,11.766056396484375,0.02093059635851532,0.0591904401153326,0.06505134977167472
1745104528170014000,11.776013916015625,0.0966356064883992,0.05607318487763405,0.09697287561874836
1745104528179971000,11.78597119140625,0.1094967320293188,0.0749146634697914,0.0757594985297881
1745104528189928000,11.795927978515625,0.11478373252153395,0.08939210163354873,0.08200997375929728
1745104528199884000,11.805884033203125,0.11375665449611842,0.07511924613118172,0.054642457954771816
1745104528209841000,11.8158408203125,0.0859644652724266,0.07967910139262675,0.03712097591999918
1745104528219797800,11.8257978515625,0.04943250475414097,0.06463759960532188,0.026527959707845
1745104528229755000,11.8357548828125,0.005333835308626294,0.02910626749694347,0.0002658113293349743
1745104528239712000,11.8457119140625,-0.06561543166153133,0.017088497444987295,-0.045116340321768075
1745104528249668900,11.8556689453125,-0.10861936467289925,-0.012274375161528586,-0.05616791395638138
1745104528259626000,11.8656259765625,-0.1262766749817878,-0.013178630524873733,-0.05967084404341876
1745104528269581800,11.875581787109375,-0.14621106337718665,-0.022585925817489624,-0.08292398333167657
1745104528279539000,11.8855390625,-0.15083463152460752,-0.04527765009701252,-0.06685828959578648
1745104528289496000,11.89549609375,-0.12296638139002024,-0.01888297964632511,-0.035165348340198396
1745104528299452700,11.90545263671875,-0.09003850977830588,-0.0034083471387624737,-0.004314465665630996
1745104528309409800,11.915409912109375,-0.029103856344148516,0.012213000363111496,0.016025215595029292
1745104528319367000,11.925366943359375,0.012547419949248432,0.04891746790409088,0.040836635442264374
1745104528329324000,11.935323974609375,0.03499415649175644,0.060012862414121626,0.0678841803111136
1745104528339281000,11.945281005859375,0.07860361764822155,0.05508300479650497,0.08070122924828901
1745104528349238000,11.955238037109375,0.07881050186455249,0.0855938783943653,0.06640548606067896
1745104528359193900,11.96519384765625,0.10191840572953223,0.06984510512053967,0.056991888891439885
1745104528369151000,11.97515087890625,0.08259177396893501,0.07728022355735302,0.05756402622358873
1745104528379107800,11.98510791015625,0.05636840496454387,0.06330255160927772,0.029070721259526908
1745104528389064700,11.995064697265626,0.01869469053260982,0.029877836391329765,0.017542543089110404
1745104528399021800,12.005021728515626,-0.023159926313161848,0.01860065557360649,-0.023777455423306674
1745104528408979000,12.01497900390625,-0.08849778314232826,-0.0004424830704927444,-0.04197975932909175
1745104528418936000,12.02493603515625,-0.09866028071641922,-0.02498714174032211,-0.05779562475606799
1745104528428893000,12.034892822265626,-0.12617964434809983,-0.03768587979376316,-0.04962557964082807
1745104528438849000,12.04484912109375,-0.14502791800722478,-0.029113281759619712,-0.05291459298254922
1745104528448806000,12.054805908203125,-0.12363280940949917,-0.02471884619295597,-0.0318881715667434
1745104528458763000,12.064762939453125,-0.10069967758953571,-0.0002566051095724106,-0.005462978113628923
1745104528468719900,12.074719970703125,-0.05846102986223995,0.016115268498659133,-0.0016286423814482985
1745104528478676700,12.0846767578125,-0.0003343465209007263,0.04100888673663139,0.022966230371966958
1745104528488633900,12.0946337890625,0.028368016350269316,0.0575087706387043,0.03617048852844164
1745104528498591000,12.104591064453125,0.06656118807904422,0.05916238306462764,0.05654462004797533
1745104528508547800,12.1145478515625,0.078287354773283,0.07740063506662845,0.0640277423449792
1745104528518504000,12.12450390625,0.09787764243874698,0.08918927253782749,0.06534909060923383
1745104528528461000,12.1344609375,0.09655373689122497,0.07385960145890712,0.05953980154227465
1745104528538418000,12.14441796875,0.06807517283856869,0.04895838443636894,0.06199402629397809
1745104528548374800,12.154374755859376,0.009011573973298072,0.0430652347445488,0.03227777367252856
1745104528558332000,12.164331787109376,-0.026508067697286603,0.01922200234234333,0.0022845855395309624
1745104528568288800,12.174288818359376,-0.05725516120381653,0.0006207622468471527,-0.020996775196213274
1745104528578246000,12.184245849609376,-0.09376607893407345,-0.001637245813012123,-0.03881018938226625
1745104528588203000,12.194203125,-0.1290332071483135,-0.02751169178187847,-0.051610360249876974
1745104528598158800,12.204158935546875,-0.13548099504821,-0.037945407512784,-0.06276406081840395
