time,seconds_elapsed,z,y,x
1745104516420906800,0.02690673828125,-0.0004370671813376248,0.014705769717693329,-0.15150509774684906
1745104516430864000,0.03686376953125,0.08474883437156677,-0.017053669318556786,-0.140691876411438
1745104516440821000,0.046821044921875,0.06922899931669235,0.08724743872880936,-0.0937693789601326
1745104516450778000,0.056778076171875,0.07433676719665527,0.0641351044178009,-0.06206309795379639
1745104516460734700,0.066734619140625,0.09807006269693375,0.03114626370370388,-0.07610461860895157
1745104516470691000,0.076691162109375,0.05364863574504852,0.043553709983825684,-0.059342533349990845
1745104516480647700,0.086647705078125,0.0018408324103802443,0.039707839488983154,-0.014860288240015507
1745104516490604800,0.096604736328125,-0.0006115530268289149,-0.024266021326184273,0.034450188279151917
1745104516500562000,0.10656201171875,-0.018902143463492393,-0.07698488980531693,0.09432949870824814
1745104516510518800,0.116518798828125,-0.08010420203208923,-0.04603387415409088,0.10520485043525696
1745104516520476000,0.126475830078125,-0.09506450593471527,-0.05442788824439049,0.057833872735500336
1745104516530433000,0.13643310546875,-0.05613037198781967,-0.08985710144042969,0.05343054234981537
1745104516540388900,0.146388916015625,-0.045501962304115295,-0.09265980869531631,0.07676595449447632
1745104516550346000,0.156345947265625,-0.0652611181139946,-0.0317365825176239,0.07161179184913635
1745104516560302800,0.166302734375,-0.05770492926239967,-0.012856103479862213,0.04301690682768822
1745104516570259700,0.176259765625,0.005808776710182428,-0.007474398240447044,-0.00025710579939186573
1745104516580216800,0.186216796875,0.06055058538913727,0.015808820724487305,-0.051578350365161896
1745104516590174000,0.196174072265625,0.05201369896531105,0.051063548773527145,-0.07171455025672913
1745104516600130800,0.206130859375,0.04643837362527847,0.1030186265707016,-0.06349257379770279
1745104516610088000,0.216087890625,0.0809863954782486,0.07690388709306717,-0.057525113224983215
1745104516620044000,0.2260439453125,0.09136420488357544,0.03976743668317795,-0.07720853388309479
1745104516630001000,0.2360009765625,0.04724359139800072,0.0779571533203125,-0.09448689967393875
1745104516639958000,0.2459580078125,0.01722550578415394,0.04332061484456062,-0.0705818310379982
1745104516649915000,0.255914794921875,0.01626214198768139,-0.013879871927201748,-0.011525311507284641
1745104516659871700,0.265871826171875,-0.013024640269577503,-0.037301577627658844,0.03808298707008362
1745104516669828900,0.275828857421875,-0.0705578550696373,-0.03410625457763672,0.05045994371175766
1745104516679786000,0.285785888671875,-0.07752947509288788,-0.04716932401061058,0.04410537704825401
1745104516689742800,0.295742919921875,-0.04792820289731026,-0.09734608978033066,0.05517490580677986
1745104516699699000,0.305698974609375,-0.046403542160987854,-0.078221395611763,0.08149492740631104
1745104516709656000,0.315656005859375,-0.07681313157081604,-0.046326860785484314,0.08815918117761612
1745104516719613000,0.325613037109375,-0.05969487130641937,-0.01586136221885681,0.07009895145893097
1745104516729569800,0.33556982421875,0.007619021460413933,-0.016768118366599083,0.03380793705582619
1745104516739527000,0.34552685546875,0.044228699058294296,-0.011773360893130302,-0.0018342123366892338
1745104516749483800,0.35548388671875,0.03305918350815773,0.05708575248718262,-0.027415001764893532
1745104516759441000,0.36544091796875,0.03254120051860809,0.08352481573820114,-0.02818545326590538
1745104516769396700,0.375396728515625,0.07511834055185318,0.05514570325613022,-0.033476971089839935
1745104516779353900,0.385353759765625,0.0837099626660347,0.04791095852851868,-0.06278026849031448
1745104516789311000,0.39531103515625,0.04673006013035774,0.07002369314432144,-0.09094566851854324
1745104516799268000,0.40526806640625,0.022960549220442772,0.054755792021751404,-0.08770433813333511
1745104516809225000,0.415224853515625,0.028896324336528778,0.0009533427655696869,-0.047838229686021805
1745104516819181800,0.425181884765625,0.0024692444130778313,-0.028949428349733353,-0.007318499032407999
1745104516829139000,0.435138916015625,-0.05063513293862343,-0.016300685703754425,0.009033492766320705
1745104516839094800,0.4450947265625,-0.06519303470849991,-0.039533037692308426,0.027122749015688896
1745104516849052000,0.455052001953125,-0.04179177060723305,-0.07854924350976944,0.05045414716005325
1745104516859008800,0.4650087890625,-0.04408528283238411,-0.07748051732778549,0.07610411196947098
1745104516868966000,0.4749658203125,-0.07408715039491653,-0.04165595397353172,0.08544857800006866
1745104516878923000,0.484923095703125,-0.05671907588839531,-0.018974874168634415,0.07169334590435028
1745104516888880000,0.494880126953125,-0.004240661393851042,-0.03550736606121063,0.05019594728946686
1745104516898836700,0.504836669921875,0.02493506669998169,-0.013817515224218369,0.026400603353977203
1745104516908793900,0.5147939453125,0.012210328131914139,0.04280773550271988,-0.001801016042008996
1745104516918749700,0.524749755859375,0.021833127364516258,0.06179048493504524,-0.01364409364759922
1745104516928706800,0.534706787109375,0.06289135664701462,0.038340289145708084,-0.029083244502544403
1745104516938664000,0.544663818359375,0.07011598348617554,0.04655853658914566,-0.05536757782101631
1745104516948620800,0.554620849609375,0.03901202604174614,0.06059228256344795,-0.07970502227544785
1745104516958578000,0.564577880859375,0.026700500398874283,0.04649563506245613,-0.08445237576961517
1745104516968535000,0.57453515625,0.03275338187813759,0.007890610955655575,-0.06640978157520294
1745104516978492000,0.584491943359375,0.007466932758688927,-0.008951486088335514,-0.044883716851472855
1745104516988448800,0.59444873046875,-0.034603677690029144,-0.0013447583187371492,-0.03592769056558609
1745104516998404900,0.60440478515625,-0.03518424555659294,-0.02510574646294117,-0.006778593175113201
1745104517008361700,0.61436181640625,-0.024098597466945648,-0.060106225311756134,0.038334921002388
1745104517018318800,0.62431884765625,-0.03798618167638779,-0.05268186330795288,0.07420477271080017
1745104517028276000,0.63427587890625,-0.060134407132864,-0.027419541031122208,0.08103238046169281
1745104517038232800,0.64423291015625,-0.040624890476465225,-0.0335053987801075,0.07541417330503464
1745104517048190000,0.65418994140625,-0.0064167119562625885,-0.038064658641815186,0.05698559060692787
1745104517058147000,0.66414697265625,-0.0010778725845739245,-0.01227407343685627,0.04921501874923706
1745104517068103000,0.67410302734375,-0.007640767842531204,0.020247885957360268,0.042028892785310745
1745104517078060000,0.68406005859375,0.01260644756257534,0.03411469608545303,0.01739199087023735
1745104517088017000,0.694016845703125,0.047999102622270584,0.02337845228612423,-0.018772060051560402
1745104517097973800,0.703973876953125,0.0472496896982193,0.02951597422361374,-0.06306575983762741
1745104517107931000,0.713930908203125,0.028148744255304337,0.05707412213087082,-0.08991247415542603
1745104517117888000,0.723887939453125,0.026923423632979393,0.03515976667404175,-0.08080632984638214
1745104517127844900,0.733844970703125,0.035121850669384,0.011183402501046658,-0.06860723346471786
1745104517137802000,0.743802001953125,0.012563810683786869,0.018320675939321518,-0.06918834149837494
1745104517147758000,0.753758056640625,-0.014600672759115696,0.012828318402171135,-0.0631052553653717
1745104517157715000,0.76371484375,-0.009546792134642601,-0.01156836748123169,-0.03729921951889992
1745104517167671800,0.773671875,-0.00858992151916027,-0.04385107755661011,0.01309991255402565
1745104517177628700,0.783628662109375,-0.03470860794186592,-0.023253923282027245,0.06097422540187836
1745104517187585500,0.79358544921875,-0.051216717809438705,-0.01545737124979496,0.0752960741519928
1745104517197542700,0.803542724609375,-0.023768581449985504,-0.03583294898271561,0.07794857770204544
1745104517207499800,0.813499755859375,0.00043843802995979786,-0.03798893839120865,0.07743731886148453
1745104517217456600,0.82345654296875,-0.015783675014972687,-0.020874932408332825,0.07245614379644394
1745104517227412700,0.833412841796875,-0.02434777095913887,0.017467446625232697,0.06787031888961792
1745104517237369900,0.843369873046875,0.0018537391442805529,0.006207868456840515,0.05715562775731087
1745104517247326700,0.85332666015625,0.033088862895965576,-0.012740669772028923,0.015042360872030258
1745104517257283600,0.86328369140625,0.02174060232937336,0.02626318857073784,-0.02953469380736351
1745104517267240700,0.87324072265625,0.008188577368855476,0.039634257555007935,-0.058426935225725174
1745104517277197600,0.883197509765625,0.02842487394809723,0.015852496027946472,-0.06684678792953491
1745104517287154700,0.89315478515625,0.03511790558695793,0.007443683687597513,-0.06298962980508804
1745104517297110800,0.90311083984375,0.010800313204526901,0.021834339946508408,-0.06873886287212372
1745104517307067600,0.913067626953125,-0.005279466509819031,0.023051198571920395,-0.0784861147403717
1745104517317024800,0.923024658203125,0.009099206887185574,-0.006333587691187859,-0.06594635546207428
1745104517326982000,0.93298193359375,0.0070083364844322205,-0.019770044833421707,-0.022730212658643723
1745104517336938500,0.9429384765625,-0.017270104959607124,-0.007697669789195061,0.02114243619143963
1745104517346895600,0.9528955078125,-0.030275244265794754,-0.0016900405753403902,0.04824165254831314
1745104517356852700,0.962852783203125,-0.012563624419271946,-0.016344882547855377,0.06693172454833984
1745104517366809600,0.9728095703125,0.004853380378335714,-0.03799375146627426,0.07235299795866013
1745104517376765700,0.982765625,-0.016501709818840027,-0.015589907765388489,0.07816002517938614
1745104517386722800,0.992722900390625,-0.028666255995631218,0.005158897954970598,0.07960329204797745
1745104517396679700,1.0026796875,-0.009440097026526928,-0.012765508145093918,0.07228066027164459
1745104517406636800,1.01263671875,0.01089333277195692,-0.014678623527288437,0.037400197237730026
1745104517416593700,1.02259375,0.0016170099843293428,0.006683656480163336,-0.0016348203644156456
1745104517426550500,1.032550537109375,-0.006956969387829304,0.02069244720041752,-0.03321206942200661
1745104517436507600,1.042507568359375,0.016905486583709717,0.014399398118257523,-0.05038945749402046
1745104517446464800,1.05246484375,0.02907371334731579,0.0010833158157765865,-0.058982718735933304
1745104517456420600,1.062420654296875,0.007916230708360672,0.020048217847943306,-0.0742034837603569
1745104517466377700,1.072377685546875,0.002956550335511565,0.034238301217556,-0.08934392780065536
1745104517476334600,1.08233447265625,0.013454197905957699,0.001415640115737915,-0.08069691061973572
1745104517486291700,1.092291748046875,0.01693647913634777,-0.0016981596127152443,-0.05402307212352753
1745104517496248800,1.102248779296875,-0.000921878672670573,0.0071065169759094715,-0.01607648842036724
1745104517506205700,1.112205810546875,-0.011568641290068626,0.012772135436534882,0.01772039756178856
1745104517516162600,1.12216259765625,-0.0005972166545689106,-0.0122048519551754,0.04738641530275345
1745104517526118700,1.13211865234375,0.0036845908034592867,-0.02582666464149952,0.06210832670331001
1745104517536075500,1.142075439453125,-0.013464301824569702,-0.00814194418489933,0.07450081408023834
1745104517546032600,1.15203271484375,-0.0223599374294281,-0.007910850457847118,0.08321365714073181
1745104517555989800,1.16198974609375,-0.011354157701134682,-0.021515076979994774,0.07989615947008133
1745104517565946600,1.171946533203125,-0.002969755558297038,-0.02231324464082718,0.05931122601032257
1745104517575903700,1.18190380859375,-0.013144894503057003,-0.0102203618735075,0.03729673847556114
1745104517585860600,1.191860595703125,-0.014031533151865005,0.009897254407405853,0.007325015030801296
1745104517595817700,1.201817626953125,0.004255328793078661,-0.005087554454803467,-0.015480166301131248
1745104517605773600,1.211773681640625,0.012835381552577019,-0.010554817505180836,-0.03385695815086365
1745104517615730700,1.221730712890625,0.0009417039109393954,0.01942545175552368,-0.0553545281291008
1745104517625687600,1.2316875,-0.0005445087444968522,0.01778845675289631,-0.06811918318271637
1745104517635644700,1.241644775390625,0.018718400970101357,0.005961624439805746,-0.0750625804066658
1745104517645601800,1.251601806640625,0.023156773298978806,0.013283691368997097,-0.06867717951536179
1745104517655558700,1.26155859375,0.0013396255671977997,0.014611543156206608,-0.05330061912536621
1745104517665515800,1.271515869140625,0.002442492637783289,0.024091359227895737,-0.03761879727244377
1745104517675472000,1.281471923828125,0.012628551572561264,0.0007460894994437695,-0.006778060924261808
1745104517685428700,1.2914287109375,0.014954238198697567,-0.003342689946293831,0.018883826211094856
1745104517695385600,1.301385498046875,-0.001266277628019452,-0.0032609307672828436,0.04075556993484497
1745104517705342700,1.3113427734375,-0.009488379582762718,-0.0034379595890641212,0.06357801705598831
1745104517715299600,1.321299560546875,-0.008118183352053165,-0.0073568010702729225,0.0709291398525238
1745104517725256700,1.331256591796875,-0.010014956817030907,-0.021670129150152206,0.06928838789463043
1745104517735213800,1.3412138671875,-0.017227597534656525,-0.014973344281315804,0.062094394117593765
1745104517745170700,1.351170654296875,-0.023539526388049126,-0.021008985117077827,0.0510253980755806
1745104517755126800,1.361126708984375,-0.016382815316319466,-0.019322939217090607,0.03985023871064186
1745104517765084000,1.371083984375,-0.0114430608227849,-0.01248054951429367,0.008687570691108704
1745104517775040500,1.38104052734375,-0.010423069819808006,-0.0030742643866688013,-0.022972088307142258
1745104517784997600,1.39099755859375,0.00024901574943214655,0.0022302200086414814,-0.04422677680850029
1745104517794954800,1.400954833984375,0.01501171663403511,0.0011045015417039394,-0.06023184210062027
1745104517804911600,1.41091162109375,0.011068325489759445,0.020300142467021942,-0.06681325286626816
1745104517814868700,1.42086865234375,0.011735447682440281,0.02510581538081169,-0.061914365738630295
1745104517824824600,1.430824462890625,0.025675984099507332,0.02216992899775505,-0.06004330888390541
1745104517834781700,1.44078173828125,0.031705379486083984,0.013037683442234993,-0.04119638353586197
1745104517844738800,1.45073876953125,0.016538476571440697,0.024029508233070374,-0.019102012738585472
1745104517854695700,1.46069580078125,0.013136819936335087,0.030591271817684174,0.0018325642449781299
1745104517864652500,1.470652587890625,0.011771473102271557,0.0009906664490699768,0.03050541691482067
1745104517874609700,1.480609619140625,0.008802315220236778,-0.008112284354865551,0.05247489735484123
1745104517884566800,1.49056689453125,-0.012155774049460888,-0.011718646623194218,0.06076828017830849
1745104517894523600,1.500523681640625,-0.030279651284217834,-0.012283502146601677,0.06758756935596466
1745104517904479700,1.510479736328125,-0.020646460354328156,-0.03428880125284195,0.05922377482056618
1745104517914436600,1.5204365234375,-0.0184517502784729,-0.037564221769571304,0.04401126876473427
1745104517924393700,1.530393798828125,-0.03439389169216156,-0.02021648921072483,0.024200255051255226
1745104517934350800,1.540350830078125,-0.03259332850575447,-0.016710171476006508,-0.0051634907722473145
1745104517944307700,1.5503076171875,-0.00846116803586483,-0.012584570795297623,-0.02307802066206932
1745104517954264600,1.5602646484375,0.009059502743184566,-0.017226725816726685,-0.039177361875772476
1745104517964221700,1.5702216796875,0.005770641379058361,0.014831677079200745,-0.059381213039159775
1745104517974177500,1.580177490234375,0.011854899115860462,0.0323299765586853,-0.06572405993938446
1745104517984134700,1.590134765625,0.03195595368742943,0.018655601888895035,-0.06474141776561737
1745104517994091800,1.600091796875,0.041755855083465576,0.029489073902368546,-0.05734395235776901
1745104518004048600,1.610048583984375,0.02883301116526127,0.03780579939484596,-0.03622127324342728
1745104518014005800,1.620005859375,0.02570512890815735,0.03245151415467262,-0.01178410928696394
1745104518023962600,1.629962646484375,0.024533797055482864,0.008851077407598495,0.005254155956208706
1745104518033919500,1.63991943359375,0.006276761647313833,0.0009276401251554489,0.030723031610250473
1745104518043876600,1.649876708984375,-0.016620635986328125,0.00028644921258091927,0.05560736358165741
1745104518053832700,1.659832763671875,-0.021445749327540398,-0.0252977404743433,0.06699610501527786
1745104518063789600,1.66978955078125,-0.022750819101929665,-0.04391862452030182,0.05955292284488678
1745104518073746700,1.67974658203125,-0.04150799289345741,-0.03687882423400879,0.04858522489666939
1745104518083703800,1.689703857421875,-0.04841718077659607,-0.021591152995824814,0.03208339586853981
1745104518093660700,1.69966064453125,-0.027157165110111237,-0.040614377707242966,0.024522682651877403
1745104518103617800,1.70961767578125,-0.009765246883034706,-0.03007231466472149,0.016071222722530365
1745104518113574700,1.71957470703125,-0.012946125119924545,-0.002414056332781911,-0.015382040292024612
1745104518123530800,1.72953076171875,-0.0011018856894224882,0.017771421000361443,-0.04736219719052315
1745104518133487600,1.739487548828125,0.025936124846339226,0.022065237164497375,-0.05460013821721077
1745104518143444700,1.74944482421875,0.045606568455696106,0.020082948729395866,-0.05253887549042702
1745104518153401600,1.759401611328125,0.032422322779893875,0.04784640297293663,-0.05332024767994881
1745104518163358700,1.769358642578125,0.024301763623952866,0.055304694920778275,-0.0495251789689064
1745104518173315800,1.77931591796875,0.043843239545822144,0.03227181360125542,-0.04313891753554344
1745104518183272700,1.789272705078125,0.04159347712993622,0.011487475596368313,-0.028780648484826088
1745104518193229600,1.7992294921875,0.009102379903197289,0.013745305128395557,-0.002947452710941434
1745104518203185700,1.809185546875,-0.015303144231438637,0.0007489207200706005,0.02611515298485756
1745104518213142500,1.819142578125,-0.020161813125014305,-0.018646614626049995,0.04581588879227638
1745104518223099600,1.829099609375,-0.026539817452430725,-0.038987573236227036,0.05259336531162262
1745104518233056500,1.839056396484375,-0.03720631077885628,-0.0371856763958931,0.03910152614116669
1745104518243013600,1.849013671875,-0.0432511568069458,-0.035106152296066284,0.03375004231929779
1745104518252970800,1.858970703125,-0.03705345094203949,-0.04055604338645935,0.04006439819931984
1745104518262927600,1.868927734375,-0.024788016453385353,-0.03201449662446976,0.0405045785009861
1745104518272883700,1.8788837890625,-0.015554572455585003,-0.013707131147384644,0.02317272685468197
1745104518282840800,1.8888408203125,-0.002650536596775055,0.004252407234162092,-0.008135740645229816
1745104518292797400,1.89879736328125,0.019625207409262657,0.011331889778375626,-0.03503846004605293
1745104518302754600,1.908754638671875,0.03124096989631653,0.027821175754070282,-0.03644629195332527
1745104518312711700,1.918711669921875,0.030517391860485077,0.04272129759192467,-0.03096630424261093
1745104518322668500,1.92866845703125,0.038805630058050156,0.043048303574323654,-0.04038570448756218
1745104518332625700,1.938625732421875,0.035477474331855774,0.028804656118154526,-0.05230414867401123
1745104518342582800,1.948582763671875,0.02631332539021969,0.02703314647078514,-0.05249742791056633
1745104518352538600,1.95853857421875,0.01136926282197237,0.022960904985666275,-0.03437222167849541
1745104518362495700,1.968495849609375,0.004653449170291424,-0.010015478357672691,-0.002326320856809616
1745104518372452600,1.97845263671875,-0.011445092968642712,-0.012755338102579117,0.02449890226125717
1745104518382409500,1.988409423828125,-0.030017180368304253,-0.02902006171643734,0.03485380485653877
1745104518392366600,1.99836669921875,-0.03600157052278519,-0.034942399710416794,0.04089385271072388
1745104518402323700,2.00832373046875,-0.03300173580646515,-0.038341768085956573,0.055227987468242645
1745104518412280600,2.018280517578125,-0.03355434164404869,-0.043280601501464844,0.061250194907188416
1745104518422236700,2.028236572265625,-0.03218743950128555,-0.019286366179585457,0.057882752269506454
1745104518432193800,2.03819384765625,-0.02114677242934704,-0.022807598114013672,0.047704681754112244
1745104518442150700,2.048150634765625,0.0032832527067512274,-0.006946983747184277,0.018277226015925407
1745104518452107800,2.058107666015625,0.011167274788022041,0.010462898761034012,-0.011757906526327133
1745104518462064600,2.068064697265625,0.01837371289730072,0.03129250556230545,-0.02542215771973133
1745104518472021500,2.078021484375,0.03553059697151184,0.026611203327775,-0.03695950284600258
1745104518481978600,2.087978515625,0.03642294928431511,0.03246679529547691,-0.04744434729218483
1745104518491935700,2.097935791015625,0.0251841451972723,0.04376126080751419,-0.05754544958472252
1745104518501891600,2.1078916015625,0.023800920695066452,0.03012801520526409,-0.06599189341068268
1745104518511848700,2.1178486328125,0.028340011835098267,0.013400169089436531,-0.059172604233026505
1745104518521805800,2.127805908203125,0.01532242726534605,0.010207545012235641,-0.027976403012871742
1745104518531762700,2.1377626953125,-0.01265993807464838,0.0016963486559689045,-0.0026747751981019974
1745104518541719600,2.147719482421875,-0.01766246184706688,-0.0069345757365226746,0.0030694487504661083
1745104518551676700,2.1576767578125,-0.015218211337924004,-0.03339201584458351,0.017866505309939384
1745104518561633500,2.167633544921875,-0.019784271717071533,-0.038096923381090164,0.0299287810921669
1745104518571589600,2.177589599609375,-0.03206783905625343,-0.025406427681446075,0.04088609293103218
1745104518581546500,2.18754638671875,-0.03722405806183815,-0.030757291242480278,0.051186829805374146
1745104518591503600,2.197503662109375,-0.02098463475704193,-0.02469540387392044,0.04969146475195885
1745104518601460700,2.207460693359375,-0.006065032910555601,-0.00926223210990429,0.025663038715720177
1745104518611417600,2.21741748046875,-0.0011475060600787401,-0.003961476963013411,0.014789883978664875
1745104518621374700,2.227374755859375,0.011064136400818825,0.02384231612086296,0.0015822959830984473
1745104518631331600,2.23733154296875,0.02607717365026474,0.020374080166220665,-0.014133017510175705
1745104518641288700,2.247288818359375,0.029533766210079193,0.018963580951094627,-0.032882507890462875
1745104518651244500,2.25724462890625,0.024554986506700516,0.043073710054159164,-0.04850354418158531
1745104518661201700,2.26720166015625,0.022860195487737656,0.03470487520098686,-0.05499371513724327
1745104518671158500,2.277158447265625,0.027986247092485428,0.009557711891829967,-0.04808733984827995
1745104518681115600,2.28711572265625,0.012754349038004875,0.011609438806772232,-0.043131131678819656
1745104518691072800,2.29707275390625,-0.005798029713332653,0.008259449154138565,-0.026816340163350105
1745104518701029600,2.307029541015625,-0.00770410243421793,-0.00804777629673481,-0.0171308945864439
1745104518710986500,2.316986572265625,-0.008463902398943901,-0.03001326322555542,0.002368238288909197
1745104518720942800,2.32694287109375,-0.02241288684308529,-0.023534266278147697,0.029027994722127914
1745104518730899500,2.3368994140625,-0.037003546953201294,-0.016112035140395164,0.04848851263523102
1745104518740856600,2.346856689453125,-0.028415093198418617,-0.02823992259800434,0.06086758151650429
1745104518750813700,2.356813720703125,-0.012721884995698929,-0.030139556154608727,0.06118396669626236
1745104518760770600,2.3667705078125,-0.014998233877122402,-0.017156321555376053,0.051679860800504684
1745104518770727700,2.376727783203125,-0.01203573402017355,-0.000889199785888195,0.043791841715574265
1745104518780684800,2.386684814453125,0.0032096747308969498,0.004725878592580557,0.03489737585186958
1745104518790641700,2.3966416015625,0.01620696485042572,0.004534663166850805,0.02026543579995632
1745104518800597800,2.40659765625,0.01759725622832775,0.01616581343114376,-0.01592993550002575
1745104518810554600,2.4165546875,0.019481975585222244,0.029011569917201996,-0.047864966094493866
1745104518820511500,2.426511474609375,0.023540174588561058,0.02011212334036827,-0.06189865246415138
1745104518830468600,2.436468505859375,0.026223842054605484,0.015121626667678356,-0.06489471346139908
1745104518840425700,2.44642578125,0.01284637488424778,0.019524559378623962,-0.06026209518313408
1745104518850382600,2.456382568359375,-0.00023214321117848158,0.015682950615882874,-0.058668993413448334
1745104518860339700,2.466339599609375,0.0013225130969658494,0.0037370268255472183,-0.052718035876750946
1745104518870295800,2.4762958984375,0.0021302499808371067,-0.015136529691517353,-0.03169664368033409
1745104518880252700,2.486252685546875,-0.012519195675849915,-0.010921908542513847,0.008999631740152836
1745104518890209800,2.496209716796875,-0.02307170443236828,-0.013682009652256966,0.049158502370119095
1745104518900166700,2.506166748046875,-0.014923136681318283,-0.015880536288022995,0.06873355060815811
1745104518910123500,2.51612353515625,-0.00682819215580821,-0.022071586921811104,0.07129044830799103
1745104518920080600,2.52608056640625,-0.00788645725697279,-0.01482269074767828,0.06094391271471977
1745104518930037800,2.536037841796875,-0.013920647092163563,-0.0064358641393482685,0.057822421193122864
1745104518939994600,2.54599462890625,-0.00936153344810009,-0.010053344070911407,0.060081519186496735
1745104518949950700,2.55595068359375,0.0032581211999058723,-0.004039127379655838,0.04562694579362869
1745104518959907600,2.565907470703125,0.0025304255541414022,0.0034165987744927406,0.012151626870036125
1745104518969864700,2.57586474609375,0.0034300414845347404,0.007070189341902733,-0.028359048068523407
1745104518979821600,2.585821533203125,0.011010629124939442,0.010815206915140152,-0.05751773715019226
1745104518989778700,2.59577880859375,0.017961211502552032,0.01131774578243494,-0.06027543917298317
1745104518999735600,2.605735595703125,0.011289610527455807,0.01346246525645256,-0.06384466588497162
1745104519009692700,2.615692626953125,0.004389360547065735,0.02193824201822281,-0.06356396526098251
1745104519019648500,2.6256484375,0.007694852538406849,0.006561674177646637,-0.07100434601306915
1745104519029605600,2.635605712890625,0.011378270573914051,0.002446557395160198,-0.06957636028528214
1745104519039562800,2.645562744140625,0.0015260467771440744,0.0009231613948941231,-0.039843134582042694
1745104519049519600,2.65551953125,-0.003962195478379726,0.004593263380229473,0.00569851603358984
1745104519059476700,2.665476806640625,-0.0003990287077613175,-0.0031147932168096304,0.040896229445934296
1745104519069433600,2.67543359375,-0.0021215612068772316,-0.01043768785893917,0.06773582845926285
1745104519079390700,2.685390625,-0.006523233838379383,-0.006519111804664135,0.0648401752114296
1745104519089347600,2.69534765625,-0.00978667102754116,-0.016052961349487305,0.06902319937944412
1745104519099303700,2.7053037109375,-0.010375327430665493,-0.016613341867923737,0.07309743016958237
1745104519109260500,2.715260498046875,-0.011016083881258965,-0.011284887790679932,0.06703155487775803
1745104519119217700,2.7252177734375,-0.014081213623285294,-0.012926243245601654,0.0486244335770607
1745104519129174800,2.7351748046875,-0.009676345624029636,-0.0010778394062072039,0.011271735653281212
1745104519139131600,2.745131591796875,0.00043773651123046875,-0.001994933933019638,-0.021386852487921715
1745104519149088500,2.755088623046875,0.0066122752614319324,-0.004354228265583515,-0.044254615902900696
1745104519159045600,2.765045654296875,0.0026836958713829517,0.0117610152810812,-0.05608512461185455
1745104519169002000,2.775001953125,0.004718617536127567,0.01537678949534893,-0.06517262756824493
1745104519178959000,2.784958984375,0.014419357292354107,0.016495807096362114,-0.0761420801281929
1745104519188916000,2.794916015625,0.0237279050052166,0.01340174674987793,-0.0746360570192337
1745104519198873000,2.804873046875,0.01784510165452957,0.019173141568899155,-0.060488633811473846
1745104519208830200,2.814830322265625,0.009553882293403149,0.016872704029083252,-0.034068476408720016
1745104519218787000,2.824787109375,0.007691823877394199,0.010180722922086716,0.00034652824979275465
1745104519228744000,2.834743896484375,0.006730688735842705,0.00048814807087183,0.02799972891807556
1745104519238700000,2.844699951171875,-0.0008994141826406121,-0.005880208685994148,0.0434851236641407
1745104519248657000,2.854656982421875,-0.00719992071390152,-0.014599664136767387,0.05575830116868019
1745104519258614000,2.864614013671875,-0.011646213941276073,-0.012271735817193985,0.06750782579183578
1745104519268571100,2.874571044921875,-0.015244677662849426,-0.02211371436715126,0.06505744904279709
1745104519278528000,2.884528076171875,-0.020694205537438393,-0.022457744926214218,0.05433677136898041
1745104519288485000,2.894485107421875,-0.01996636390686035,-0.00992224644869566,0.030794162303209305
1745104519298442200,2.904442138671875,-0.01502179354429245,-0.023379791527986526,0.007825545035302639
1745104519308398800,2.91439892578125,-0.006581436842679977,-0.009728960692882538,-0.009987274184823036
1745104519318355200,2.924355224609375,-0.00488127488642931,0.0054382742382586,-0.028347641229629517
1745104519328311800,2.934311767578125,0.003136437851935625,0.005450258497148752,-0.04404430836439133
1745104519338269000,2.94426904296875,0.01621851697564125,0.011953085660934448,-0.05728687718510628
1745104519348226000,2.95422607421875,0.020401811227202415,0.014988822862505913,-0.05885174870491028
1745104519358183000,2.964182861328125,0.022140465676784515,0.021327214315533638,-0.05040371045470238
1745104519368140000,2.97414013671875,0.016234373673796654,0.02885383926331997,-0.039621371775865555
1745104519378097200,2.98409716796875,0.0190915334969759,0.018812717869877815,-0.02121608331799507
1745104519388054000,2.994053955078125,0.018909640610218048,0.009279666468501091,0.0004980009980499744
1745104519398010000,3.004010009765625,0.01183008961379528,-0.0006246592383831739,0.024078041315078735
1745104519407967000,3.013967041015625,-0.006473018322139978,-0.004523260518908501,0.04563819244503975
1745104519417923800,3.023923828125,-0.012853613123297691,-0.01915249601006508,0.06491745263338089
1745104519427881000,3.033880859375,-0.02060634270310402,-0.019504033029079437,0.06409719586372375
1745104519437838000,3.043838134765625,-0.02271953597664833,-0.02562890201807022,0.052822355180978775
1745104519447795000,3.053794921875,-0.02518056333065033,-0.030651357024908066,0.0369856022298336
1745104519457752000,3.063751953125,-0.021031895652413368,-0.021338151767849922,0.0273943692445755
1745104519467708200,3.073708251953125,-0.017114384099841118,-0.01741931214928627,0.018216051161289215
1745104519477665000,3.0836650390625,-0.008349265903234482,-0.009926844388246536,-0.00033788225846365094
1745104519487622100,3.0936220703125,0.0011129452614113688,0.008575733751058578,-0.026040051132440567
1745104519497579000,3.1035791015625,0.009959988296031952,0.013451460748910904,-0.050840962678194046
1745104519507536000,3.113535888671875,0.024296317249536514,0.018747422844171524,-0.06309496611356735
1745104519517493000,3.123492919921875,0.02920949086546898,0.025228312239050865,-0.0572781078517437
1745104519527450000,3.1334501953125,0.02271830104291439,0.030172470957040787,-0.04321608692407608
1745104519537407000,3.143406982421875,0.017443906515836716,0.03195638582110405,-0.038023583590984344
1745104519547363000,3.153363037109375,0.024189693853259087,0.020658191293478012,-0.03162214159965515
1745104519557320200,3.1633203125,0.016498196870088577,0.006829982623457909,-0.014956117607653141
1745104519567277000,3.173277099609375,0.0003969901008531451,-0.0010231465566903353,0.016762662678956985
1745104519577234000,3.18323388671875,-0.014724945649504662,-0.003499206155538559,0.041426364332437515
1745104519587191000,3.19319091796875,-0.018950847908854485,-0.016179049387574196,0.05360420048236847
1745104519597148000,3.20314794921875,-0.019046872854232788,-0.03046485409140587,0.05072404816746712
1745104519607105000,3.21310498046875,-0.025756441056728363,-0.02000023052096367,0.04094678536057472
1745104519617061000,3.22306103515625,-0.026672272011637688,-0.025472208857536316,0.038985393941402435
1745104519627018000,3.23301806640625,-0.022865017876029015,-0.029022201895713806,0.043195851147174835
1745104519636975000,3.24297509765625,-0.018430063501000404,-0.014715442433953285,0.02242853119969368
1745104519646932200,3.25293212890625,-0.01341133564710617,-0.012600094079971313,-0.010251384228467941
1745104519656889000,3.26288916015625,0.0019568544812500477,0.009373331442475319,-0.03864407166838646
1745104519666846000,3.272845947265625,0.02031295746564865,0.01347033865749836,-0.046737685799598694
1745104519676803000,3.282802978515625,0.02734268456697464,0.020150896161794662,-0.04119982570409775
1745104519686759000,3.292759033203125,0.02066187933087349,0.032631270587444305,-0.03996917977929115
1745104519696716000,3.302716064453125,0.027008144184947014,0.0343208871781826,-0.04617534950375557
1745104519706673000,3.3126728515625,0.033448465168476105,0.02613646164536476,-0.05652386322617531
1745104519716630000,3.322630126953125,0.025469031184911728,0.013851395808160305,-0.04055313020944595
1745104519726587100,3.332587158203125,0.012613952159881592,0.021717041730880737,-0.005837759934365749
1745104519736544300,3.342544189453125,-0.0028924003709107637,0.0023680636659264565,0.025991665199398994
1745104519746500900,3.3525009765625,-0.01107682753354311,-0.011769859120249748,0.0415051095187664
1745104519756458000,3.3624580078125,-0.016862034797668457,-0.02041621506214142,0.04357100650668144
1745104519766413800,3.372413818359375,-0.0222376249730587,-0.03721943125128746,0.04639049246907234
1745104519776371000,3.382370849609375,-0.03145613521337509,-0.03547545522451401,0.052054423838853836
1745104519786328000,3.392328125,-0.03337467461824417,-0.030208788812160492,0.055003874003887177
1745104519796285000,3.402284912109375,-0.028391879051923752,-0.031703609973192215,0.04459255188703537
1745104519806242000,3.412241943359375,-0.016316041350364685,-0.020110338926315308,0.014597102999687195
1745104519816199200,3.42219921875,-0.004424612037837505,-0.0007197828963398933,-0.016967274248600006
1745104519826156000,3.432156005859375,0.007773198187351227,0.003741011954843998,-0.03359152376651764
1745104519836113000,3.44211279296875,0.020207131281495094,0.022178687155246735,-0.03915220499038696
1745104519846069000,3.452069091796875,0.023275893181562424,0.03202146291732788,-0.04713396728038788
1745104519856025900,3.46202587890625,0.027384741231799126,0.030915383249521255,-0.05851200968027115
1745104519865983000,3.47198291015625,0.03328923135995865,0.0320269875228405,-0.07115457206964493
1745104519875940000,3.481940185546875,0.028301062062382698,0.02811277098953724,-0.06113573536276817
1745104519885897000,3.49189697265625,0.015462495386600494,0.02413826994597912,-0.030651865527033806
1745104519895854000,3.50185400390625,0.00623921537771821,0.00885041430592537,-0.0029993844218552113
1745104519905811000,3.51181103515625,-0.00028100190684199333,-0.002542588859796524,0.022211428731679916
1745104519915767000,3.52176708984375,-0.012349791824817657,-0.011856798082590103,0.0352385938167572
1745104519925724000,3.531723876953125,-0.020148061215877533,-0.02681231126189232,0.04254896938800812
1745104519935681000,3.541680908203125,-0.022943099960684776,-0.029867252334952354,0.05744422972202301
1745104519945638000,3.551637939453125,-0.03151315078139305,-0.03526867553591728,0.06408961862325668
1745104519955595000,3.561594970703125,-0.03445427119731903,-0.022259093821048737,0.056467752903699875
1745104519965552000,3.57155224609375,-0.024915628135204315,-0.020563725382089615,0.030126694589853287
1745104519975509000,3.581509033203125,-0.006478638853877783,-0.019026322290301323,0.0054745059460401535
1745104519985466000,3.591466064453125,0.0015712978783994913,-0.004325140733271837,-0.006678829435259104
1745104519995422200,3.601422119140625,0.0019517694599926472,0.016848143190145493,-0.022123318165540695
1745104520005379000,3.611379150390625,0.01169627532362938,0.021541964262723923,-0.03575151041150093
1745104520015336000,3.6213359375,0.03169760853052139,0.02191689796745777,-0.05411757156252861
1745104520025293000,3.63129296875,0.03371814638376236,0.03203904256224632,-0.06667651236057281
1745104520035250000,3.64125,0.02674548327922821,0.03628559783101082,-0.06664358824491501
1745104520045207000,3.65120703125,0.023161400109529495,0.03082398697733879,-0.049106936901807785
1745104520055164200,3.6611640625,0.020832490175962448,0.016860246658325195,-0.027221038937568665
1745104520065120000,3.6711201171875,0.01019875518977642,0.005946079269051552,-0.00974697433412075
1745104520075077000,3.6810771484375,-0.010529330000281334,-0.000996998744085431,0.00863324198871851
1745104520085034200,3.6910341796875,-0.018314814195036888,-0.016043325886130333,0.027280163019895554
1745104520094990800,3.700990966796875,-0.02133295312523842,-0.029045134782791138,0.051870234310626984
1745104520104948000,3.710947998046875,-0.03188066929578781,-0.0382106713950634,0.0662800669670105
1745104520114905000,3.720905029296875,-0.0319230854511261,-0.026678819209337234,0.06323609501123428
1745104520124862000,3.730862060546875,-0.026139231398701668,-0.027338482439517975,0.05263751372694969
1745104520134819000,3.740819091796875,-0.014830455183982849,-0.026979923248291016,0.04166877269744873
1745104520144775000,3.75077490234375,-0.0017727100057527423,-0.0048154983669519424,0.02175764925777912
1745104520154732000,3.76073193359375,-0.00028971629217267036,0.0010095746256411076,0.002740098163485527
1745104520164688600,3.770688720703125,0.01275018509477377,0.024629151448607445,-0.01901739463210106
1745104520174645500,3.7806455078125,0.02307417057454586,0.028058355674147606,-0.04934164136648178
1745104520184602600,3.7906025390625,0.02854696661233902,0.02476828545331955,-0.07240808010101318
1745104520194559500,3.8005595703125,0.02841034159064293,0.02803771384060383,-0.07380370795726776
1745104520204516400,3.810516357421875,0.02925536409020424,0.03650736063718796,-0.07304656505584717
1745104520214472400,3.820472412109375,0.022678859531879425,0.01676277443766594,-0.06132680922746658
1745104520224429600,3.8304296875,0.01374315470457077,0.018678385764360428,-0.04230411723256111
1745104520234386400,3.840386474609375,0.006735946051776409,0.003812542650848627,-0.0177439134567976
1745104520244343600,3.850343505859375,-0.0009257025085389614,-0.009639617055654526,0.01197829656302929
1745104520254300700,3.86030078125,-0.010095647536218166,-0.01936556026339531,0.05143601819872856
1745104520264257500,3.870257568359375,-0.022646591067314148,-0.025946231558918953,0.07576585561037064
1745104520274214400,3.88021435546875,-0.0332430899143219,-0.029554832726716995,0.08222980052232742
1745104520284171500,3.890171630859375,-0.03302684426307678,-0.03690382465720177,0.0874493271112442
1745104520294127400,3.90012744140625,-0.024512644857168198,-0.03488258644938469,0.07148578763008118
1745104520304084500,3.91008447265625,-0.022169329226017,-0.03283461555838585,0.05098184570670128
1745104520314041600,3.92004150390625,-0.01964934729039669,-0.016577959060668945,0.03420739248394966
1745104520323998500,3.92999853515625,-0.005836062133312225,0.000004745554178953171,0.01548883505165577
1745104520333955600,3.93995556640625,0.005583327263593674,0.0014395271427929401,-0.014610028825700283
1745104520343912700,3.94991259765625,0.01802534982562065,0.021847596392035484,-0.04905189201235771
1745104520353869300,3.959869384765625,0.029668688774108887,0.026978177949786186,-0.07415378093719482
1745104520363826400,3.969826416015625,0.03830984979867935,0.03265950083732605,-0.08631563931703568
1745104520373782500,3.979782470703125,0.03397930786013603,0.039568278938531876,-0.08504766970872879
1745104520383739400,3.989739501953125,0.028518492355942726,0.03883031755685806,-0.07901480793952942
1745104520393696500,3.999696533203125,0.02439800463616848,0.02215331792831421,-0.05136169120669365
1745104520403653600,4.009653564453125,0.013414328917860985,0.002683746162801981,-0.01917765662074089
1745104520413610500,4.019610595703125,-0.0048209866508841515,-0.004654247313737869,0.020127074792981148
1745104520423567600,4.029567626953125,-0.022670824080705643,-0.014575321227312088,0.05570397898554802
1745104520433524700,4.039524658203125,-0.030376316979527473,-0.030180735513567924,0.08517081290483475
1745104520443480600,4.04948046875,-0.029126763343811035,-0.039269305765628815,0.0887884572148323
1745104520453437400,4.0594375,-0.033830150961875916,-0.04576447978615761,0.08505154401063919
1745104520463394300,4.069394287109375,-0.03838255628943443,-0.02778041921555996,0.06544695049524307
1745104520473351400,4.079351318359375,-0.028525009751319885,-0.02320970594882965,0.04939452186226845
1745104520483308500,4.08930859375,-0.01453142985701561,-0.02307894453406334,0.03177637979388237
1745104520493265700,4.099265625,-0.000985430902801454,0.0016420260071754456,0.011480182409286499
1745104520503222500,4.109222412109375,0.007602730765938759,0.015768231824040413,-0.020266028121113777
1745104520513179600,4.1191796875,0.02398630417883396,0.02048366516828537,-0.056823402643203735
1745104520523135500,4.129135498046875,0.033153172582387924,0.027029981836676598,-0.08126643300056458
1745104520533092600,4.139092529296875,0.030391810461878777,0.038346048444509506,-0.08955592662096024
1745104520543049500,4.149049560546875,0.028929732739925385,0.031187471002340317,-0.07856585830450058
1745104520553006300,4.15900634765625,0.03058002144098282,0.03893376886844635,-0.06834209710359573
1745104520562963500,4.16896337890625,0.02438284456729889,0.017731545493006706,-0.049566276371479034
1745104520572920600,4.178920654296875,0.01272747665643692,0.011309981346130371,-0.01868155039846897
1745104520582877700,4.188877685546875,-0.0019713081419467926,-0.011129813268780708,0.018660761415958405
1745104520592833500,4.19883349609375,-0.0202534981071949,-0.013170119374990463,0.05969829484820366
1745104520602790700,4.208790771484375,-0.02699289284646511,-0.025562075898051262,0.08766654133796692
1745104520612747500,4.21874755859375,-0.033339448273181915,-0.04462430998682976,0.08734580874443054
1745104520622704400,4.228704345703125,-0.03431549668312073,-0.0351698212325573,0.0723215863108635
1745104520632661500,4.23866162109375,-0.03740566223859787,-0.03306503966450691,0.06286948174238205
1745104520642618400,4.248618408203125,-0.025378556922078133,-0.025814848020672798,0.06010432168841362
1745104520652575500,4.258575439453125,-0.015992004424333572,-0.016375955194234848,0.04182501882314682
1745104520662532600,4.26853271484375,-0.008801204152405262,-0.006169656291604042,0.011410119943320751
1745104520672488400,4.278488525390625,0.009891161695122719,0.01253354549407959,-0.023893561214208603
1745104520682445600,4.288445556640625,0.021889768540859222,0.015396444126963615,-0.049475084990262985
1745104520692402700,4.298402587890625,0.029316352680325508,0.028779806569218636,-0.06184704974293709
1745104520702359600,4.308359619140625,0.026899002492427826,0.041768576949834824,-0.07071590423583984
1745104520712316400,4.31831640625,0.029427528381347656,0.03527051955461502,-0.08023147284984589
1745104520722273500,4.3282734375,0.033694177865982056,0.03278046473860741,-0.07245450466871262
1745104520732230400,4.33823046875,0.02850368060171604,0.026540283113718033,-0.04341580346226692
1745104520742187500,4.3481875,0.02211848460137844,-0.0035494412295520306,0.0010541942901909351
1745104520752143600,4.3581435546875,0.0046051484532654285,-0.011782534420490265,0.05790598317980766
1745104520762100500,4.3681005859375,-0.03143434599041939,-0.018340302631258965,0.08765828609466553
1745104520772057600,4.3780576171875,-0.04311208426952362,-0.01667105220258236,0.08121069520711899
1745104520782014700,4.3880146484375,-0.036093588918447495,-0.05210068076848984,0.0793645903468132
1745104520791971300,4.397971435546875,-0.031112585216760635,-0.04151749610900879,0.07940760999917984
1745104520801928400,4.407928466796875,-0.036038365215063095,-0.03755711019039154,0.07972106337547302
1745104520811885600,4.417885498046875,-0.03818541392683983,-0.021310240030288696,0.06702206283807755
1745104520821841400,4.42784130859375,-0.01475252490490675,-0.007949425838887691,0.01511758379638195
1745104520831798500,4.437798583984375,0.006473550572991371,-0.0139118991792202,-0.052146997302770615
1745104520841755600,4.447755615234375,0.020593898370862007,0.011615563184022903,-0.08966188132762909
1745104520851712500,4.45771240234375,0.023462921380996704,0.04270423948764801,-0.09204833954572678
1745104520861669600,4.467669677734375,0.037310026586055756,0.04479562118649483,-0.08533424139022827
1745104520871626500,4.47762646484375,0.04578418284654617,0.04781590402126312,-0.09294053912162781
1745104520881583400,4.487583251953125,0.04172738641500473,0.04697514325380325,-0.10356255620718002
1745104520891540500,4.49754052734375,0.03226890414953232,0.037803877145051956,-0.0935388132929802
1745104520901496300,4.507496337890625,0.025925520807504654,0.013788023963570595,-0.038830023258924484
1745104520911453400,4.517453369140625,0.0086582126095891,-0.00596192991361022,0.029518017545342445
1745104520921410600,4.52741064453125,-0.016245538368821144,-0.005914791952818632,0.07668925821781158
1745104520931367700,4.53736767578125,-0.03210877627134323,-0.02569667249917984,0.0858083963394165
1745104520941324500,4.547324462890625,-0.029922587797045708,-0.041123565286397934,0.09195417165756226
1745104520951281700,4.55728173828125,-0.03132028877735138,-0.05364992097020149,0.10120310634374619
1745104520961238500,4.567238525390625,-0.044825177639722824,-0.04937075451016426,0.1140669733285904
1745104520971195400,4.5771953125,-0.04569346457719803,-0.0309077687561512,0.10086166858673096
1745104520981151500,4.5871513671875,-0.03387382626533508,-0.03392459824681282,0.07009097188711166
1745104520991108400,4.5971083984375,-0.012581100687384605,-0.012857820838689804,0.023665476590394974
1745104521001065500,4.6070654296875,0.005992051213979721,0.008329490199685097,-0.022892171517014503
1745104521011022600,4.617022705078125,0.01866905763745308,0.0158243365585804,-0.03973850980401039
1745104521020979500,4.6269794921875,0.026988772675395012,0.03248134255409241,-0.059384118765592575
1745104521030936600,4.6369365234375,0.03792247921228409,0.04319356381893158,-0.08436483144760132
1745104521040893400,4.6468935546875,0.04292922094464302,0.047013867646455765,-0.11111202836036682
1745104521050849500,4.656849609375,0.05047100409865379,0.04140004143118858,-0.12248282879590988
1745104521060806400,4.666806396484375,0.04517104849219322,0.03325449675321579,-0.10104145109653473
1745104521070763500,4.676763427734375,0.01626713015139103,0.02958487905561924,-0.06475228816270828
1745104521080720400,4.686720458984375,-0.00597585691139102,0.0300085861235857,-0.02804461121559143
1745104521090677500,4.696677490234375,0.0027825748547911644,-0.01444311998784542,-0.0007722271839156747
1745104521100634600,4.706634521484375,-0.0005013691261410713,-0.04271257668733597,0.0340331569314003
1745104521110591500,4.716591552734375,-0.03725678473711014,-0.02862248197197914,0.07391133904457092
1745104521120548600,4.726548583984375,-0.06204948574304581,-0.03187180310487747,0.11653416603803635
1745104521130504700,4.736504638671875,-0.04397442191839218,-0.03579055517911911,0.1255500614643097
1745104521140461600,4.746461669921875,-0.023045435547828674,-0.06407678872346878,0.10922116041183472
1745104521150418400,4.75641845703125,-0.024024775251746178,-0.033019449561834335,0.07511164247989655
1745104521160375600,4.76637548828125,-0.028475450351834297,-0.009125035256147385,0.04810639098286629
1745104521170333000,4.7763330078125,-0.007593701593577862,-0.013376288115978241,0.03543492779135704
1745104521180290000,4.7862900390625,0.020760174840688705,0.011189507320523262,0.001192801515571773
1745104521190247000,4.796246826171875,0.020389124751091003,0.01629382185637951,-0.043845225125551224
1745104521200203000,4.806203125,0.023458950221538544,0.04522986710071564,-0.09165402501821518
1745104521210159900,4.816159912109375,0.03909865394234657,0.04320614039897919,-0.10875467211008072
1745104521220116700,4.82611669921875,0.04412403702735901,0.023756008595228195,-0.10111752897500992
1745104521230073900,4.836073974609375,0.0310208722949028,0.044060006737709045,-0.08720845729112625
1745104521240031000,4.846031005859375,0.012134801596403122,0.04347411170601845,-0.09109294414520264
1745104521249987800,4.85598779296875,0.017936447635293007,0.018633319064974785,-0.08686670660972595
1745104521259945000,4.865945068359375,0.020075500011444092,-0.013360032811760902,-0.051566775888204575
1745104521269902000,4.875902099609375,-0.009642811492085457,-0.016266657039523125,0.00815659761428833
1745104521279858000,4.88585791015625,-0.04099061340093613,0.001958952285349369,0.06309468299150467
1745104521289815000,4.89581494140625,-0.03216216340661049,-0.03099389746785164,0.09779178351163864
1745104521299772000,4.90577197265625,-0.01393495500087738,-0.06037282571196556,0.09054292738437653
1745104521309728800,4.915728759765625,-0.02680812031030655,-0.03169163689017296,0.07776431739330292
1745104521319686000,4.925685791015625,-0.046829499304294586,-0.021970566362142563,0.0820205807685852
1745104521329643000,4.93564306640625,-0.027489041909575462,-0.01789683662354946,0.09313548356294632
1745104521339600000,4.945599853515625,-0.0014001824893057346,-0.03129892796278,0.07556474208831787
1745104521349556000,4.955555908203125,-0.004754602909088135,-0.009193310514092445,0.020904043689370155
1745104521359512800,4.965512939453125,-0.002548972610384226,0.031123749911785126,-0.0384540855884552
1745104521369470000,4.975469970703125,0.02451702393591404,0.01273118332028389,-0.07489196956157684
1745104521379427000,4.985427001953125,0.046276383101940155,0.013796182349324226,-0.07582647353410721
1745104521389383700,4.9953837890625,0.022606568410992622,0.0425032339990139,-0.06974417716264725
1745104521399340800,5.0053408203125,0.007731215562671423,0.049443963915109634,-0.08602941036224365
1745104521409298000,5.0152978515625,0.033574365079402924,0.021935559809207916,-0.1014389917254448
1745104521419254800,5.0252548828125,0.03760319575667381,0.009002185426652431,-0.0911639854311943
1745104521429211000,5.0352109375,0.012345070019364357,0.01626613363623619,-0.04619063064455986
1745104521439168000,5.04516796875,-0.010545331984758377,0.01319311186671257,0.009238271974027157
1745104521449124900,5.055124755859375,-0.008529948070645332,-0.010506406426429749,0.05850740522146225
1745104521459082000,5.06508203125,-0.006403680890798569,-0.029975712299346924,0.07783476263284683
1745104521469038800,5.075038818359375,-0.020680861547589302,-0.033221691846847534,0.07792734354734421
1745104521478995700,5.08499560546875,-0.03480812907218933,-0.027690572664141655,0.0863003209233284
1745104521488952800,5.094952880859375,-0.03542240336537361,-0.033200327306985855,0.0948503240942955
1745104521498910000,5.104909912109375,-0.02698683924973011,-0.04065318405628204,0.0892648696899414
1745104521508865800,5.11486572265625,-0.024632243439555168,-0.01889723911881447,0.055316366255283356
1745104521518823000,5.124822998046875,-0.014596918597817421,-0.007358027622103691,0.011113752610981464
1745104521528780000,5.134780029296875,0.0015646193642169237,-0.006827851291745901,-0.03445258364081383
1745104521538737000,5.14473681640625,0.011887031607329845,0.014146406203508377,-0.05588037893176079
1745104521548694000,5.154694091796875,0.016605302691459656,0.018562164157629013,-0.07030971348285675
1745104521558651000,5.16465087890625,0.02476496249437332,0.03142683207988739,-0.08271072804927826
1745104521568607700,5.174607666015625,0.03335123509168625,0.034678272902965546,-0.09118147939443588
1745104521578564900,5.18456494140625,0.03866930305957794,0.028165780007839203,-0.09814298152923584
1745104521588521000,5.19452099609375,0.027486108243465424,0.03447864204645157,-0.08493204414844513
1745104521598477800,5.204477783203125,0.017755184322595596,0.02612563967704773,-0.044709526002407074
1745104521608435000,5.21443505859375,0.0170446764677763,0.011552033945918083,0.0027776057831943035
1745104521618392000,5.22439208984375,0.0011842204257845879,-0.011196954175829887,0.037948112934827805
1745104521628349000,5.234348876953125,-0.017198342829942703,-0.00120800849981606,0.06115686520934105
1745104521638305800,5.244305908203125,-0.021720124408602715,-0.01569294184446335,0.08231807500123978
1745104521648263000,5.254262939453125,-0.015246633440256119,-0.047037482261657715,0.1044214740395546
1745104521658218800,5.26421875,-0.022870197892189026,-0.02420007437467575,0.11305730789899826
1745104521668176000,5.27417578125,-0.03829275816679001,-0.0239690113812685,0.09776701778173447
1745104521678133000,5.284133056640625,-0.032983213663101196,-0.024908840656280518,0.07375781983137131
1745104521688089900,5.29408984375,-0.008591975085437298,-0.023852158337831497,0.049395833164453506
1745104521698047000,5.304046875,-0.001675213105045259,-0.019575919955968857,0.031200049445033073
1745104521708004000,5.314004150390625,-0.009310642257332802,0.012060895562171936,0.014213528484106064
1745104521717961000,5.3239609375,0.004085058346390724,0.02773093432188034,-0.011901162564754486
1745104521727917800,5.333917724609375,0.025195840746164322,0.01941276714205742,-0.04447443038225174
1745104521737874000,5.3438740234375,0.03846796602010727,0.03348863869905472,-0.07152868062257767
1745104521747830800,5.353830810546875,0.03703390806913376,0.03742482140660286,-0.09106184542179108
1745104521757788000,5.363787841796875,0.025982853025197983,0.029285136610269547,-0.08797124773263931
1745104521767744800,5.373744873046875,0.02103692665696144,0.031629160046577454,-0.08005018532276154
1745104521777702000,5.383701904296875,0.015344686806201935,0.009545963257551193,-0.05706363916397095
1745104521787659000,5.393658935546875,0.0047459108754992485,-0.002135154325515032,-0.040805209428071976
1745104521797616000,5.4036162109375,-0.012109767645597458,-0.0059181745164096355,-0.0271740835160017
1745104521807572000,5.413572021484375,-0.020687036216259003,-0.010949034243822098,0.012026417069137096
1745104521817529000,5.423529052734375,-0.018275810405611992,-0.03580990806221962,0.0399017259478569
1745104521827485700,5.433485595703125,-0.02602200023829937,-0.03316317871212959,0.05472135171294212
1745104521837442800,5.44344287109375,-0.04329073429107666,-0.019749635830521584,0.06446079909801483
1745104521847400000,5.45339990234375,-0.025829697027802467,-0.0240840595215559,0.059644658118486404
1745104521857356800,5.463356689453125,-0.0015541851753368974,-0.04050803929567337,0.03817425295710564
1745104521867314000,5.47331396484375,-0.014419189654290676,-0.006108689121901989,0.029075318947434425
1745104521877271000,5.48327099609375,-0.012522752396762371,0.02864103578031063,0.015093190595507622
1745104521887227000,5.493226806640625,0.019335724413394928,0.002673557959496975,-0.01750674843788147
1745104521897184000,5.50318408203125,0.037605542689561844,0.013818353414535522,-0.04610829800367355
1745104521907140900,5.513140869140625,0.02397984080016613,0.05016842111945152,-0.07050670683383942
1745104521917097700,5.52309765625,0.030697131529450417,0.03818659484386444,-0.07538561522960663
1745104521927054800,5.533054931640625,0.045483995229005814,0.020452702417969704,-0.06448261439800262
1745104521937012000,5.543011962890625,0.026110829785466194,0.021306779235601425,-0.047876209020614624
1745104521946968800,5.55296875,-0.006156005430966616,0.0282730832695961,-0.05010070651769638
1745104521956925000,5.562925048828125,-0.003567146137356758,0.009655991569161415,-0.03792739659547806
1745104521966882000,5.572882080078125,0.012917553074657917,-0.02977091446518898,0.004895578138530254
1745104521976839000,5.5828388671875,-0.014411806128919125,-0.031171206384897232,0.04318437725305557
1745104521986795800,5.592795654296875,-0.051566023379564285,-0.012084683403372765,0.05911163613200188
1745104521996753000,5.6027529296875,-0.03709094226360321,-0.024364784359931946,0.06281290203332901
1745104522006709800,5.612709716796875,-0.009768322110176086,-0.052175428718328476,0.0631619468331337
1745104522016667000,5.6226669921875,-0.015137255191802979,-0.03402598202228546,0.04999315366148949
1745104522026624000,5.6326240234375,-0.036040063947439194,-0.0026717521250247955,0.042479418218135834
1745104522036579800,5.642579833984375,-0.015488184057176113,0.0003535989671945572,0.033345308154821396
1745104522046537000,5.652536865234375,0.019261833280324936,-0.006067667156457901,0.0141677837818861
1745104522056494000,5.662494140625,0.02139955200254917,0.0063336081802845,-0.01827351376414299
1745104522066451000,5.672450927734375,0.010973639786243439,0.04449116438627243,-0.04864299297332764
1745104522076407800,5.68240771484375,0.02433152310550213,0.035847343504428864,-0.05382736772298813
1745104522086365000,5.692364990234375,0.043744612485170364,0.007026602979749441,-0.051441483199596405
1745104522096321800,5.70232177734375,0.023509114980697632,0.028925776481628418,-0.053607165813446045
1745104522106279000,5.71227880859375,0.0030992061365395784,0.04515043646097183,-0.06070885434746742
1745104522116234800,5.72223486328125,0.015140688978135586,0.010110692121088505,-0.05719641223549843
1745104522126191900,5.73219189453125,0.0253074262291193,-0.01691914163529873,-0.030912015587091446
1745104522136149000,5.74214892578125,-0.012205062434077263,-0.009456964209675789,0.002404395956546068
1745104522146106000,5.752106201171875,-0.039281878620386124,0.005835213232785463,0.027279488742351532
1745104522156062700,5.762062744140625,-0.024442747235298157,-0.03078777901828289,0.04176389053463936
1745104522166019800,5.772019775390625,-0.006217380054295063,-0.051200367510318756,0.044551461935043335
1745104522175977000,5.78197705078125,-0.023939384147524834,-0.02149573341012001,0.042115468531847
1745104522185933000,5.79193310546875,-0.03539291396737099,-0.01162569411098957,0.054951924830675125
1745104522195890000,5.801889892578125,-0.011927802115678787,-0.013520266860723495,0.05981405824422836
1745104522205847000,5.811846923828125,0.008480292744934559,-0.017198476940393448,0.04447681084275246
1745104522215804200,5.82180419921875,0.002907627960667014,-0.0003819456323981285,0.011773724108934402
1745104522225761000,5.831760986328125,-0.002665642648935318,0.02865499071776867,-0.017815962433815002
1745104522235718000,5.8417177734375,0.017887836322188377,0.014490703120827675,-0.027821723371744156
1745104522245675000,5.851675048828125,0.03421241044998169,0.007688289973884821,-0.034025270491838455
1745104522255632000,5.8616318359375,0.01963932439684868,0.0278894305229187,-0.04963911697268486
1745104522265588000,5.871587890625,0.0064493389800190926,0.03446975722908974,-0.061735667288303375
1745104522275545000,5.881545166015625,0.022508200258016586,0.01830356940627098,-0.06528965383768082
1745104522285502000,5.891501953125,0.02601810358464718,-0.0013548880815505981,-0.05059855058789253
1745104522295459000,5.901458984375,0.0021037154365330935,0.0073086414486169815,-0.02610252983868122
1745104522305416200,5.911416259765625,-0.021292783319950104,0.004190296865999699,-0.00003112608101218939
1745104522315373000,5.921373046875,-0.01041137520223856,-0.015318157151341438,0.022633705288171768
1745104522325330000,5.931329833984375,-0.0034023956395685673,-0.028597043827176094,0.03349139168858528
1745104522335287000,5.941287109375,-0.019000796601176262,-0.023015590384602547,0.04833132401108742
1745104522345243000,5.951242919921875,-0.0270994920283556,-0.010420179925858974,0.05562994256615639
1745104522355200000,5.961199951171875,-0.01831718534231186,-0.014624511823058128,0.060371436178684235
1745104522365157000,5.9711572265625,-0.006353588309139013,-0.02560398541390896,0.04942832514643669
1745104522375114000,5.981114013671875,-0.0065107145346701145,-0.0015649620909243822,0.02311282977461815
1745104522385071000,5.991071044921875,-0.0037099886685609818,0.007805577013641596,0.002795389387756586
1745104522395028200,6.0010283203125,0.008899547159671783,0.0019649984315037727,-0.010583799332380295
1745104522404984800,6.01098486328125,0.020501509308815002,0.010650050826370716,-0.022569233551621437
1745104522414941200,6.020941162109375,0.014084889553487301,0.018959378823637962,-0.037959907203912735
1745104522424897800,6.030897705078125,0.01522755715996027,0.02489458955824375,-0.05924071744084358
1745104522434855000,6.04085498046875,0.023110512644052505,0.01711656153202057,-0.06968244165182114
1745104522444812000,6.05081201171875,0.02127404510974884,0.013060053810477257,-0.05864807963371277
1745104522454769200,6.06076904296875,0.008682087063789368,0.015069674700498581,-0.0343448705971241
1745104522464726000,6.07072607421875,0.002229949226602912,0.010616820305585861,-0.014253860339522362
1745104522474683100,6.08068310546875,0.004460080526769161,-0.0035453380551189184,0.004240994341671467
1745104522484640000,6.090639892578125,-0.0015444770688191056,-0.015306488610804081,0.017276348546147346
1745104522494596000,6.10059619140625,-0.016837414354085922,-0.011999375186860561,0.039586976170539856
1745104522504553000,6.110552978515625,-0.01965522952377796,-0.014700046740472317,0.05461982637643814
1745104522514509800,6.120509765625,-0.015629595145583153,-0.029232917353510857,0.06399442255496979
1745104522524467000,6.130467041015625,-0.01500680297613144,-0.02524728886783123,0.053583674132823944
1745104522534424000,6.140424072265625,-0.016441181302070618,-0.009457940235733986,0.0337148942053318
1745104522544381000,6.150380859375,-0.012696463614702225,-0.008311163634061813,0.01688033528625965
1745104522554338000,6.160338134765625,0.0007687446195632219,-0.0038064264226704836,0.002447334351018071
1745104522564295200,6.170295166015625,0.00590002816170454,0.001449410803616047,-0.010422412306070328
1745104522574251000,6.1802509765625,0.004489351529628038,0.0113622285425663,-0.02920701913535595
1745104522584208100,6.1902080078125,0.012521542608737946,0.023790718987584114,-0.049704693257808685
1745104522594165000,6.2001650390625,0.02103433571755886,0.01359880156815052,-0.055789217352867126
1745104522604121900,6.210121826171875,0.021061524748802185,0.015815626829862595,-0.05167778581380844
1745104522614079000,6.220078857421875,0.010481584817171097,0.023333996534347534,-0.04199559986591339
1745104522624036000,6.2300361328125,0.010607236996293068,0.01677527092397213,-0.02377845160663128
1745104522633993000,6.239992919921875,0.011724167503416538,0.004796639550477266,-0.007634102366864681
1745104522643950000,6.2499501953125,0.002011060481891036,-0.00395944993942976,0.009246445260941982
1745104522653906200,6.25990625,-0.005743797868490219,-0.00009919796139001846,0.028979403898119926
1745104522663863000,6.269863037109375,-0.014333942905068398,-0.013744089752435684,0.044278670102357864
1745104522673820000,6.27981982421875,-0.015468982048332691,-0.019147377461194992,0.05279306322336197
1745104522683777000,6.289777099609375,-0.017704633995890617,-0.020317669957876205,0.04443098232150078
1745104522693734000,6.29973388671875,-0.021827207878232002,-0.02244420535862446,0.03275648504495621
1745104522703691000,6.30969091796875,-0.01741483435034752,-0.011389531195163727,0.01967923529446125
1745104522713648000,6.319648193359375,-0.008138244971632957,-0.011377546936273575,0.0077256374061107635
1745104522723604000,6.32960400390625,-0.0036608425434678793,-0.007410324644297361,-0.004054568707942963
1745104522733561000,6.33956103515625,0.001070263097062707,0.009150542318820953,-0.021043937653303146
1745104522743518200,6.349518310546875,0.011211098171770573,0.0104744303971529,-0.03817705810070038
1745104522753475000,6.35947509765625,0.020409921184182167,0.01233358308672905,-0.05021108314394951
1745104522763432000,6.369431884765625,0.018712036311626434,0.021679481491446495,-0.047460611909627914
1745104522773389000,6.37938916015625,0.018243318423628807,0.028194637969136238,-0.03984450176358223
1745104522783346000,6.389345947265625,0.020151982083916664,0.020977463573217392,-0.02785579301416874
1745104522793303000,6.399302978515625,0.020689940080046654,0.014275617897510529,-0.01038039568811655
1745104522803259100,6.409259033203125,0.011593041941523552,0.009489879012107849,0.00519286934286356
1745104522813216000,6.419216064453125,-0.003376320004463196,-0.0010205528233200312,0.023266412317752838
1745104522823173000,6.429173095703125,-0.008979875594377518,-0.011411269195377827,0.0370023176074028
1745104522833130200,6.439130126953125,-0.013644934631884098,-0.01893017068505287,0.04602937027812004
1745104522843086800,6.4490869140625,-0.02145196869969368,-0.02749861776828766,0.04571196436882019
1745104522853044000,6.4590439453125,-0.024435240775346756,-0.021454308182001114,0.037972018122673035
1745104522863001000,6.4690009765625,-0.02440592274069786,-0.023443806916475296,0.028381872922182083
1745104522872958000,6.4789580078125,-0.015043312683701515,-0.023775368928909302,0.017843743786215782
1745104522882914000,6.4889140625,-0.007125177886337042,-0.006470531690865755,0.0021762624382972717
1745104522892871200,6.49887109375,-0.0006710072048008442,-0.004928561393171549,-0.00845694076269865
1745104522902828000,6.508828125,0.007862632162868977,0.007502036169171333,-0.020942246541380882
1745104522912785200,6.51878515625,0.01513599045574665,0.014715740457177162,-0.022236542776226997
1745104522922742000,6.528741943359375,0.016779331490397453,0.02397230640053749,-0.026959536597132683
1745104522932699000,6.538698974609375,0.019918931648135185,0.02318640798330307,-0.02182389609515667
1745104522942656000,6.548656005859375,0.02229510061442852,0.028725704178214073,-0.0215328149497509
1745104522952611800,6.55861181640625,0.023906845599412918,0.02606866881251335,-0.01755058951675892
1745104522962569000,6.56856884765625,0.012389134615659714,0.016777925193309784,-0.007901525124907494
1745104522972526000,6.578526123046875,0.009977109730243683,0.004987578373402357,0.003807595232501626
1745104522982483000,6.58848291015625,-0.0006379595142789185,-0.006377312354743481,0.019451431930065155
1745104522992440000,6.598440185546875,-0.014069079421460629,-0.01784381829202175,0.029260652139782906
1745104523002397200,6.608397216796875,-0.021371275186538696,-0.018278220668435097,0.03270188719034195
1745104523012354000,6.61835400390625,-0.029843322932720184,-0.026714583858847618,0.03323345631361008
1745104523022311000,6.628310791015625,-0.02585388347506523,-0.03289923071861267,0.02613936923444271
1745104523032267000,6.63826708984375,-0.024257583543658257,-0.019319772720336914,0.01573306694626808
1745104523042223900,6.648223876953125,-0.021022450178861618,-0.022724665701389313,0.011227693408727646
1745104523052181000,6.658180908203125,-0.010085646994411945,-0.01025015115737915,0.006122414022684097
1745104523062138000,6.66813818359375,0.0016341041773557663,0.005585665348917246,-0.00526810996234417
1745104523072095000,6.678094970703125,0.0072142258286476135,0.008565742522478104,-0.01766831986606121
1745104523082052000,6.688052001953125,0.020018653944134712,0.027639802545309067,-0.029234223067760468
1745104523092009000,6.698009033203125,0.027935700491070747,0.028108786791563034,-0.03709561005234718
1745104523101965000,6.707965087890625,0.03311939910054207,0.023982683196663857,-0.03317832574248314
1745104523111922000,6.717921875,0.025326456874608994,0.033609211444854736,-0.02817664109170437
1745104523121879000,6.727879150390625,0.019779745489358902,0.02980680949985981,-0.021988602355122566
1745104523131836000,6.7378359375,0.01494637317955494,0.01194019429385662,-0.017292916774749756
1745104523141793000,6.74779296875,0.012892034836113453,-0.0005055468063801527,-0.004365892149507999
1745104523151750100,6.757750244140625,-0.005062730051577091,-0.005967956501990557,0.01599610410630703
1745104523161707000,6.76770703125,-0.021848537027835846,-0.010640017688274384,0.03328800946474075
1745104523171663600,6.77766357421875,-0.02650161273777485,-0.028457630425691605,0.036964233964681625
1745104523181619700,6.78761962890625,-0.023957833647727966,-0.03713664412498474,0.027149055153131485
1745104523191576600,6.79757666015625,-0.029794150963425636,-0.031324028968811035,0.021176116541028023
1745104523201533400,6.807533447265625,-0.0344526469707489,-0.026850895956158638,0.018168054521083832
1745104523211490600,6.817490478515625,-0.020741896703839302,-0.016648326069116592,0.01469582598656416
1745104523221447400,6.827447509765625,-0.007066297344863415,-0.013532161712646484,0.012332536280155182
1745104523231404500,6.837404541015625,0.0050476230680942535,0.0013575726188719273,-0.008607898838818073
1745104523241361700,6.847361572265625,0.01176239550113678,0.022872254252433777,-0.02802850864827633
1745104523251318500,6.857318603515625,0.022376690059900284,0.023224856704473495,-0.0319255106151104
1745104523261274600,6.867274658203125,0.03417122736573219,0.026907838881015778,-0.032819781452417374
1745104523271231700,6.877231689453125,0.03161033242940903,0.03193961828947067,-0.024020163342356682
1745104523281188600,6.887188720703125,0.020704055204987526,0.03064526990056038,-0.01775122620165348
1745104523291145500,6.8971455078125,0.017460325732827187,0.024121591821312904,-0.02263040281832218
1745104523301102600,6.9071025390625,0.014240879565477371,0.00277917692437768,-0.016505461186170578
1745104523311059500,6.9170595703125,0.002037476282566786,-0.004531466867774725,-0.0026455719489604235
1745104523321016600,6.9270166015625,-0.016598235815763474,-0.01063409075140953,0.014296434819698334
1745104523330973700,6.9369736328125,-0.022845478728413582,-0.02628415636718273,0.02673046663403511
1745104523340929500,6.946929443359375,-0.02433687448501587,-0.03106028027832508,0.02854430489242077
1745104523350886700,6.95688671875,-0.03235804662108421,-0.03677808493375778,0.025635866448283195
1745104523360843800,6.96684375,-0.03205689415335655,-0.02230822481215,0.024636443704366684
1745104523370800400,6.97680029296875,-0.023404816165566444,-0.01881762035191059,0.02653314732015133
1745104523380757500,6.986757568359375,-0.008297694846987724,-0.021802715957164764,0.017381828278303146
1745104523390714600,6.996714599609375,-0.0011234052944928408,0.009603675454854965,0.0025323082227259874
1745104523400671500,7.00667138671875,0.010110219940543175,0.01743357814848423,-0.01220953930169344
1745104523410627600,7.016627685546875,0.024010054767131805,0.01923174411058426,-0.015620515681803226
1745104523420584700,7.026584716796875,0.03457697108387947,0.025848910212516785,-0.015252957120537758
1745104523430541600,7.03654150390625,0.02440103143453598,0.027876373380422592,-0.023486917838454247
1745104523440498700,7.046498779296875,0.01717974990606308,0.03435990959405899,-0.02726917900145054
1745104523450455600,7.05645556640625,0.023227522149682045,0.019639018923044205,-0.027233226224780083
1745104523460412400,7.066412353515625,0.017274025827646255,0.00369227584451437,-0.02031087316572666
1745104523470369500,7.07636962890625,-0.004508767742663622,0.002671486232429743,-0.011727504432201385
1745104523480326700,7.08632666015625,-0.016014639288187027,-0.006933439522981644,-0.001924881711602211
1745104523490282500,7.096282470703125,-0.01790868118405342,-0.017886221408843994,0.009361594915390015
1745104523500239600,7.106239501953125,-0.021793315187096596,-0.035401251167058945,0.019213631749153137
1745104523510196500,7.116196533203125,-0.02970317006111145,-0.027940671890974045,0.020215246826410294
1745104523520153600,7.126153564453125,-0.031099755316972733,-0.02191181853413582,0.019538497552275658
1745104523530110700,7.13611083984375,-0.021910518407821655,-0.02774946764111519,0.024875739589333534
1745104523540067600,7.146067626953125,-0.007573896087706089,-0.011465547606348991,0.01682821847498417
1745104523550024400,7.1560244140625,-0.005582118406891823,0.0001940373331308365,0.013292073272168636
1745104523559981600,7.165981689453125,0.007606701925396919,0.012703722342848778,0.001897556008771062
1745104523569937400,7.1759375,0.02433774434030056,0.016476355493068695,-0.004019455052912235
1745104523579894500,7.18589453125,0.025043895468115807,0.019020946696400642,-0.010781140066683292
1745104523589851600,7.1958515625,0.021725328639149666,0.03097028285264969,-0.015765512362122536
1745104523599808500,7.20580859375,0.02272009290754795,0.0316944420337677,-0.01843576319515705
1745104523609765600,7.215765625,0.023460984230041504,0.014878973364830017,-0.01644797995686531
1745104523619722500,7.225722412109375,0.01856054924428463,0.01091141439974308,-0.017826348543167114
1745104523629679600,7.2356796875,0.0009349510073661804,0.0030510947108268738,-0.014920838177204132
1745104523639635500,7.245635498046875,-0.011203204281628132,-0.004301360342651606,-0.003769118105992675
1745104523649592600,7.255592529296875,-0.015458403155207634,-0.023659078404307365,0.006066202186048031
1745104523659549400,7.265549560546875,-0.01952899619936943,-0.025957228615880013,0.008049129508435726
1745104523669506600,7.275506591796875,-0.028936346992850304,-0.0184340663254261,0.008071234449744225
1745104523679463700,7.285463623046875,-0.027866918593645096,-0.02492942474782467,0.017465513199567795
1745104523689420500,7.295420654296875,-0.012481835670769215,-0.020591402426362038,0.021323634311556816
1745104523699377700,7.305377685546875,-0.008432136848568916,-0.01411415170878172,0.018284989520907402
1745104523709334500,7.31533447265625,-0.004465624690055847,0.001595569308847189,0.014728071168065071
1745104523719290400,7.325290283203125,0.007461536210030317,0.01035134308040142,0.010691804811358452
1745104523729247500,7.33524755859375,0.018051063641905785,0.010961206629872322,0.004517532419413328
1745104523739204600,7.34520458984375,0.019324803724884987,0.018152648583054543,-0.00613611564040184
1745104523749161500,7.355161376953125,0.019240116700530052,0.02987721562385559,-0.01248509157449007
1745104523759118600,7.36511865234375,0.020413747057318687,0.02030140534043312,-0.016678668558597565
1745104523769075700,7.37507568359375,0.020159149542450905,0.01657218113541603,-0.02109552174806595
1745104523779032600,7.385032470703125,0.014919429086148739,0.00942561961710453,-0.018025903031229973
1745104523788989400,7.394989501953125,0.003200454404577613,0.006541149225085974,-0.015857823193073273
1745104523798945800,7.40494580078125,-0.006973740644752979,-0.005434079561382532,-0.011774849146604538
1745104523808902400,7.41490234375,-0.011454508639872074,-0.015195630490779877,-0.0016407225048169494
1745104523818859500,7.424859619140625,-0.016024809330701828,-0.017624197527766228,0.002395771909505129
1745104523828816600,7.434816650390625,-0.01903418079018593,-0.023931894451379776,0.009717866778373718
1745104523838773500,7.4447734375,-0.01748242974281311,-0.014814997091889381,0.017455434426665306
1745104523848730600,7.454730712890625,-0.0135103240609169,-0.014244015328586102,0.019731905311346054
1745104523858687700,7.464687744140625,-0.009437527507543564,-0.012664344161748886,0.019521944224834442
1745104523868644400,7.474644287109375,-0.0029849549755454063,0.003501043189316988,0.011238181963562965
1745104523878600700,7.4846005859375,0.006373343989253044,0.00581236882135272,0.01103039551526308
1745104523888557600,7.4945576171875,0.014318086206912994,0.006097061093896627,0.00243823928758502
1745104523898514400,7.504514404296875,0.012625817209482193,0.01797005534172058,-0.0036830580793321133
1745104523908471600,7.514471435546875,0.016469823196530342,0.01814422756433487,-0.008426947519183159
1745104523918428700,7.5244287109375,0.018219979479908943,0.013585653156042099,-0.015532362274825573
1745104523928385500,7.534385498046875,0.0160905160009861,0.015603264793753624,-0.018936680629849434
1745104523938342700,7.5443427734375,0.008854393847286701,0.011100638657808304,-0.02008751779794693
1745104523948298500,7.554298583984375,-0.00019342952873557806,0.0006820866838097572,-0.013149715028703213
1745104523958255600,7.564255615234375,-0.005656469613313675,-0.002377275610342622,-0.00831687543541193
1745104523968212500,7.57421240234375,-0.007191249169409275,-0.01081283763051033,-0.00193887110799551
1745104523978169600,7.584169677734375,-0.014911220408976078,-0.014730880968272686,0.006530247628688812
1745104523988126500,7.59412646484375,-0.016477692872285843,-0.011809393763542175,0.014671796932816505
1745104523998083600,7.60408349609375,-0.011785880662500858,-0.012943841516971588,0.019441969692707062
1745104524008040700,7.614040771484375,-0.010866823606193066,-0.015644019469618797,0.021192198619246483
1745104524017997600,7.62399755859375,-0.006525264121592045,-0.0038859841879457235,0.01859743706882
1745104524027953700,7.63395361328125,-0.0017169271595776081,0.005408980417996645,0.014245033264160156
1745104524037910500,7.64391064453125,0.004616554360836744,-0.007012426853179932,0.013412591069936752
1745104524047867600,7.65386767578125,0.011544501408934593,0.009968155063688755,0.00471657095476985
1745104524057824500,7.663824462890625,0.007226379122585058,0.01539604365825653,-0.0011074768844991922
1745104524067781400,7.673781494140625,0.008373934775590897,0.013492949306964874,-0.012132697738707066
1745104524077738500,7.683738525390625,0.0159115269780159,0.014697512611746788,-0.018442971631884575
1745104524087695600,7.693695556640625,0.011656063608825207,0.006449704058468342,-0.02293226309120655
1745104524097652700,7.70365283203125,0.004401855170726776,0.009439358487725258,-0.02081429399549961
1745104524107608600,7.713608642578125,0.0001530477311462164,0.0057298424653708935,-0.020901910960674286
1745104524117565700,7.723565673828125,0.0006094651762396097,-0.006066787987947464,-0.01621388830244541
1745104524127522600,7.7335224609375,-0.007704124785959721,-0.010995766147971153,-0.0079879155382514
1745104524137479400,7.7434794921875,-0.01152445375919342,-0.007048311643302441,-0.0032292751129716635
1745104524147436500,7.7534365234375,-0.012805433943867683,-0.0066147493198513985,0.008178907446563244
1745104524157393400,7.763393310546875,-0.009433340281248093,-0.01658974401652813,0.0214154701679945
1745104524167350300,7.773350341796875,-0.00472220778465271,-0.011738796718418598,0.0279117189347744
1745104524177307400,7.783307373046875,-0.004610815551131964,-0.003031298518180847,0.029210403561592102
1745104524187263200,7.79326318359375,-0.002526359399780631,-0.004591378383338451,0.028193341568112373
1745104524197220400,7.803220458984375,0.004686958156526089,0.003474211785942316,0.026604847982525826
1745104524207177200,7.81317724609375,0.0060632796958088875,0.0033655548468232155,0.019752800464630127
1745104524217134300,7.82313427734375,0.003666119882836938,0.003595228772610426,0.013597764074802399
1745104524227091200,7.83309130859375,0.004805686883628368,0.015268662944436073,0.0006156535819172859
1745104524237048300,7.84304833984375,0.008772005327045918,0.0033105770125985146,-0.00967283546924591
1745104524247005200,7.853005126953125,0.0053847311064600945,0.001826397143304348,-0.015713682398200035
1745104524256961300,7.862961181640625,0.005604537669569254,0.008833616971969604,-0.025098908692598343
1745104524266918100,7.872918212890625,0.0028183385729789734,-0.0012477796990424395,-0.030840151011943817
1745104524276875300,7.882875244140625,-0.0012533199042081833,0.0024911905638873577,-0.033560898154973984
1745104524286832400,7.892832275390625,-0.001867711078375578,0.0003958153538405895,-0.028652958571910858
1745104524296789200,7.902789306640625,-0.0011829875875264406,-0.002939112950116396,-0.0223711971193552
1745104524306746400,7.912746337890625,-0.002511372324079275,-0.004029144532978535,-0.004657713696360588
1745104524316703200,7.922703125,-0.003978944383561611,-0.0027687603142112494,0.006421590223908424
1745104524326660000,7.93266015625,-0.0003807476023212075,-0.0020398530177772045,0.014375653117895126
1745104524336616200,7.9426162109375,-0.003166268579661846,-0.005084970034658909,0.021140430122613907
1745104524346573300,7.9525732421875,0.0012298115761950612,-0.0014489563181996346,0.02544303424656391
1745104524356530200,7.9625302734375,0.002855380065739155,-0.00019502220675349236,0.027808289974927902
1745104524366487300,7.9724873046875,-0.0031710872426629066,-0.004492831416428089,0.02689242921769619
1745104524376444400,7.9824443359375,0.0008708660025149584,0.0050056385807693005,0.015262506902217865
1745104524386401300,7.9924013671875,-0.0006905453628860414,0.0002662772312760353,0.005338237155228853
1745104524396358100,8.002358154296875,-0.0005342178046703339,-0.0051308851689100266,-0.005506420973688364
1745104524406315300,8.012315185546875,-0.0006037263083271682,0.0055659678764641285,-0.012735571712255478
1745104524416271000,8.02227099609375,-0.0015685890102759004,-0.001233742106705904,-0.017413560301065445
1745104524426228200,8.032228271484374,-0.0006559237372130156,0.0015569846145808697,-0.025431273505091667
1745104524436185300,8.042185302734374,0.0007795682176947594,0.0008882824331521988,-0.026850920170545578
1745104524446142200,8.05214208984375,0.0013952909503132105,0.00032076286152005196,-0.028268519788980484
1745104524456099300,8.062099365234374,0.001792973023839295,0.0028458735905587673,-0.02378697320818901
1745104524466056400,8.072056396484374,0.002669685520231724,0.0018080398440361023,-0.011999822221696377
1745104524476013000,8.082012939453126,0.004506202414631844,0.009685277938842773,-0.002791022416204214
1745104524485970200,8.09197021484375,0.0058111511170864105,-0.002032631542533636,0.006052003707736731
1745104524495926300,8.10192626953125,0.0018750963499769568,0.006319358013570309,0.012453054077923298
1745104524505883100,8.111883056640625,0.002314784098416567,0.0025896006263792515,0.0218896996229887
1745104524515840300,8.12184033203125,0.00040471646934747696,-0.007257062941789627,0.026714609935879707
1745104524525797400,8.13179736328125,-0.0022272856440395117,-0.003792023751884699,0.025504201650619507
1745104524535754200,8.141754150390625,-0.006699725985527039,-0.0036371273454278708,0.01753360964357853
1745104524545711400,8.15171142578125,-0.006117825396358967,-0.014596302062273026,0.009649320505559444
1745104524555668500,8.16166845703125,-0.0022176504135131836,-0.004499340895563364,0.0021627452224493027
1745104524565624300,8.171624267578125,-0.009078752249479294,-0.008783034980297089,-0.0023297411389648914
1745104524575581400,8.18158154296875,-0.006720934994518757,-0.006272148806601763,-0.012023462913930416
1745104524585538300,8.191538330078124,-0.0035041028168052435,0.0011042747646570206,-0.017686942592263222
1745104524595495200,8.2014951171875,0.0015143342316150665,-0.00030028633773326874,-0.021884923800826073
1745104524605452300,8.211452392578124,0.005181773565709591,0.0030931136570870876,-0.019712582230567932
1745104524615409400,8.221409423828124,0.005537159740924835,0.008942273445427418,-0.016620468348264694
1745104524625366300,8.2313662109375,0.007031725719571114,0.013012116774916649,-0.010141529142856598
1745104524635323400,8.241323486328126,0.010290296748280525,0.007306799758225679,-0.0012546879006549716
1745104524645279200,8.251279296875,0.010867137461900711,0.009411495178937912,0.004845815245062113
1745104524655236400,8.261236328125,0.007491654716432095,0.009186092764139175,0.012963111512362957
1745104524665193200,8.271193115234375,0.0008931402117013931,0.0003388053737580776,0.020566169172525406
1745104524675150000,8.281150146484375,0.000025603454560041428,-0.0022313531953841448,0.021631620824337006
1745104524685107200,8.291107177734375,-0.004224002826958895,-0.009065290912985802,0.01775432378053665
1745104524695064300,8.301064208984375,-0.009860243648290634,-0.01538160815834999,0.011351797729730606
1745104524705021400,8.311021484375,-0.01218411885201931,-0.009127175435423851,0.0037711102049797773
1745104524714978300,8.320978271484375,-0.013571578077971935,-0.011772194877266884,0.001195624703541398
1745104524724934400,8.330934326171874,-0.011872746981680393,-0.015453482046723366,-0.002500043949112296
1745104524734891300,8.340891357421874,-0.008665647357702255,-0.006622255314141512,-0.007852399721741676
1745104524744848100,8.35084814453125,-0.0017630003858357668,0.00007080100476741791,-0.018242722377181053
1745104524754805200,8.36080517578125,0.0009368159808218479,-0.002284941030666232,-0.01923424005508423
1745104524764762000,8.37076220703125,0.008729757741093636,0.006118397694081068,-0.01959909312427044
1745104524774719200,8.38071923828125,0.009432395920157433,0.014242280274629593,-0.01554787065833807
1745104524784676400,8.39067626953125,0.008785780519247055,0.013643868267536163,-0.011305986903607845
1745104524794633500,8.400633544921876,0.014275573194026947,0.015971718356013298,-0.008336113765835762
1745104524804589300,8.41058935546875,0.015830591320991516,0.009098898619413376,-0.0009924472542479634
1745104524814546400,8.42054638671875,0.007984919473528862,0.004983376711606979,0.00882304459810257
1745104524824503300,8.43050341796875,0.00012859445996582508,0.005840914323925972,0.01538453996181488
1745104524834460200,8.440460205078125,-0.0042528859339654446,-0.0010316574480384588,0.017610859125852585
1745104524844417300,8.450417236328125,-0.006779160350561142,-0.01497010886669159,0.017317378893494606
1745104524854374100,8.4603740234375,-0.01405210793018341,-0.013109292834997177,0.014844860881567001
1745104524864331300,8.470331298828125,-0.016971731558442116,-0.011003796942532063,0.008027435280382633
1745104524874288400,8.480288330078125,-0.01585293747484684,-0.021876685321331024,0.0075470018200576305
1745104524884244200,8.490244140625,-0.01013593003153801,-0.011304467916488647,0.007243933621793985
1745104524894201300,8.500201416015624,-0.009112187661230564,-0.00674938689917326,-0.0052505116909742355
1745104524904158500,8.510158447265624,-0.007439988665282726,-0.004311263095587492,-0.01567758619785309
1745104524914115000,8.520114990234376,0.006177505478262901,0.00487689021974802,-0.01469016820192337
1745104524924072200,8.530072265625,0.012146981433033943,0.009855403564870358,-0.014646226540207863
1745104524934029300,8.540029296875,0.013974635861814022,0.014998866245150566,-0.010618975386023521
1745104524943986200,8.549986083984376,0.015753626823425293,0.018729954957962036,-0.012296766974031925
1745104524953942300,8.5599423828125,0.01862090639770031,0.01764862984418869,-0.010344074107706547
1745104524963899400,8.5698994140625,0.014452527277171612,0.007153378799557686,-0.006680895574390888
1745104524973856300,8.579856201171875,0.010306228883564472,0.009953290224075317,0.0038802146445959806
1745104524983813400,8.5898134765625,0.00045785855036228895,0.008014243096113205,0.01083479356020689
1745104524993770200,8.599770263671875,-0.004159336443990469,-0.007348242215812206,0.01359372865408659
1745104525003727000,8.60972705078125,-0.007460057735443115,-0.013505203649401665,0.013968168757855892
1745104525013684200,8.619684326171875,-0.016371043398976326,-0.013171934522688389,0.012247296050190926
1745104525023641300,8.629641357421875,-0.01982969231903553,-0.020464202389121056,0.014239073731005192
1745104525033597200,8.63959716796875,-0.01760512962937355,-0.018496915698051453,0.011815105564892292
1745104525043554300,8.64955419921875,-0.01483703963458538,-0.014524544589221478,0.004419241566210985
1745104525053511400,8.659511474609374,-0.012416346929967403,-0.012649331241846085,-0.0017095557413995266
1745104525063468300,8.66946826171875,-0.0022358805872499943,0.0003197300247848034,-0.00885055586695671
1745104525073425400,8.67942529296875,0.0038656636606901884,0.0054895756766200066,-0.010731441900134087
1745104525083382300,8.68938232421875,0.010518240742385387,0.006990533322095871,-0.00862195249646902
1745104525093339100,8.699339111328126,0.015894774347543716,0.017163343727588654,-0.011667050421237946
1745104525103296300,8.709296142578125,0.016070542857050896,0.023179158568382263,-0.011991157196462154
1745104525113252000,8.719252197265625,0.01680942438542843,0.013413685373961926,-0.01136275939643383
1745104525123209200,8.729209228515625,0.016621671617031097,0.012483975850045681,-0.008729957975447178
1745104525133166300,8.739166259765625,0.010104724206030369,0.013823572546243668,-0.002224792493507266
1745104525143123500,8.74912353515625,-0.0006003848975524306,0.002179432660341263,0.0051582888700068
1745104525153080300,8.759080322265625,-0.002632788149639964,-0.004300371743738651,0.005083492957055569
1745104525163037200,8.769037109375,-0.010701899416744709,-0.011355351656675339,0.004974037408828735
1745104525172995000,8.7789951171875,-0.016323711723089218,-0.018513869494199753,0.007314874790608883
1745104525182952200,8.7889521484375,-0.017492573708295822,-0.017323704436421394,0.009816115722060204
1745104525192908000,8.798907958984374,-0.018006008118391037,-0.016577083617448807,0.009044516831636429
1745104525202865200,8.808865234375,-0.013857335783541203,-0.02129034698009491,0.006634090095758438
1745104525212822300,8.818822265625,-0.00884763803333044,-0.002945937681943178,0.002947761444374919
1745104525222779100,8.828779052734374,0.0006217641057446599,-0.0014724105130881071,-0.003251544898375869
1745104525232736000,8.838736083984376,0.005676443222910166,-0.001352974446490407,-0.006435741204768419
1745104525242693000,8.848693115234376,0.009793690405786037,0.015436924993991852,-0.0021709552966058254
1745104525252650200,8.858650146484376,0.016259385272860527,0.02027646079659462,-0.006854022387415171
1745104525262607000,8.868607177734376,0.01922854408621788,0.015314459800720215,-0.00813074130564928
1745104525272563200,8.878563232421875,0.02181074395775795,0.02003171667456627,-0.012660778127610683
1745104525282520000,8.88852001953125,0.012496605515480042,0.01480233483016491,-0.005000995006412268
1745104525292477200,8.898477294921875,0.006196146830916405,0.006845373194664717,-0.0012136567384004593
1745104525302434300,8.908434326171875,0.0007718204287812114,0.004899934399873018,0.0020519113168120384
1745104525312391200,8.91839111328125,-0.004949714057147503,-0.008199497126042843,0.004745048005133867
1745104525322348000,8.92834814453125,-0.01070507150143385,-0.017105907201766968,0.0046286676079034805
1745104525332305200,8.93830517578125,-0.016315916553139687,-0.013098557479679585,0.00781937688589096
1745104525342261000,8.948260986328124,-0.01893460378050804,-0.017386512830853462,0.009807160124182701
1745104525352218000,8.958218017578124,-0.01628962531685829,-0.020587798207998276,0.012870612554252148
1745104525362175200,8.96817529296875,-0.011148391291499138,-0.009200920350849628,0.011727583594620228
1745104525372132000,8.978132080078124,-0.007980004884302616,-0.0077851759269833565,0.0055339140817523
1745104525382089200,8.988089111328126,-0.0019301013089716434,-0.0011094301007688046,0.004165049642324448
1745104525392046300,8.99804638671875,0.007714947685599327,0.007593455258756876,0.0027784216217696667
1745104525402003000,9.0080029296875,0.012317422777414322,0.01391579955816269,-0.003125806339085102
1745104525411960000,9.0179599609375,0.01462870929390192,0.012483775615692139,-0.005353639833629131
1745104525421916200,9.027916259765625,0.017561113461852074,0.021910302340984344,-0.012249096296727657
1745104525431873000,9.037873046875,0.01813434809446335,0.014868429861962795,-0.011289107613265514
1745104525441830100,9.047830078125,0.013031997717916965,0.010651313699781895,-0.008542856201529503
1745104525451787300,9.057787353515625,0.004613915458321571,0.012686451897025108,-0.006046552211046219
1745104525461744000,9.067744140625,0.0011731111444532871,-0.0011081895790994167,-0.004657980054616928
1745104525471701200,9.077701171875,-0.004436644725501537,-0.011686572805047035,-0.00008383579552173615
1745104525481658000,9.087658203125,-0.013233065605163574,-0.01174782495945692,0.00211273948661983
1745104525491615000,9.097614990234375,-0.015565461479127407,-0.016642840579152107,0.007354760076850653
1745104525501571000,9.107571044921874,-0.020051557570695877,-0.020130516961216927,0.00979554746299982
1745104525511528200,9.117528076171874,-0.013216407969594002,-0.013289321213960648,0.012930847704410553
1745104525521485000,9.127485107421874,-0.012041954323649406,-0.011301005259156227,0.011799536645412445
1745104525531442200,9.137442138671876,-0.0075294459238648415,-0.01104598306119442,0.008802886120975018
1745104525541399300,9.1473994140625,0.0022406268399208784,0.002863707486540079,0.006379942409694195
1745104525551356200,9.157356201171876,0.008919229730963707,0.004604981280863285,0.005609776359051466
1745104525561313300,9.167313232421876,0.012151508592069149,0.010496959090232849,0.0025370209477841854
1745104525571270100,9.177270263671875,0.016288945451378822,0.02021241933107376,-0.009378314018249512
1745104525581226000,9.18722607421875,0.015648189932107925,0.014538022689521313,-0.011214297264814377
1745104525591183000,9.19718310546875,0.01616125926375389,0.014583095908164978,-0.015861550346016884
1745104525601140200,9.20714013671875,0.010474346578121185,0.012535924091935158,-0.019176920875906944
1745104525611097000,9.21709716796875,0.007923425175249577,0.006001651752740145,-0.016174020245671272
1745104525621054200,9.22705419921875,-0.0017060323152691126,-0.001602738630026579,-0.012513238936662674
1745104525631011300,9.23701123046875,-0.005066844634711742,0.00015899213030934334,-0.009873904287815094
1745104525640968200,9.24696826171875,-0.007169676944613457,-0.011218031868338585,-0.004995792172849178
1745104525650925000,9.256925048828125,-0.012887241318821907,-0.01512489840388298,0.004497801885008812
1745104525660881200,9.266881103515624,-0.013578064739704132,-0.01090804859995842,0.011141856200993061
1745104525670838000,9.276838134765624,-0.013581817969679832,-0.015464866533875465,0.01834767684340477
1745104525680795100,9.286795166015626,-0.011173787526786327,-0.015241427347064018,0.018394548445940018
1745104525690752000,9.296751953125,-0.005382115487009287,-0.0025544692762196064,0.015118320472538471
1745104525700709000,9.306709228515626,-0.0005034705973230302,-0.0021270320285111666,0.013486335054039955
1745104525710666200,9.316666259765626,0.005174752790480852,0.0017605586908757687,0.009857537224888802
1745104525720623400,9.326623291015625,0.009776429273188114,0.012626254931092262,0.004152247216552496
1745104525730580000,9.336580078125,0.009755849838256836,0.010277573019266129,-0.004259181208908558
1745104525740536300,9.346536376953125,0.013298120349645615,0.008759038522839546,-0.01118979137390852
1745104525750493000,9.356492919921875,0.010748409666121006,0.013204386457800865,-0.014502497389912605
1745104525760450000,9.366449951171875,0.00858139619231224,0.008629342541098595,-0.016916919499635696
1745104525770407200,9.3764072265625,0.005236779805272818,0.002911427989602089,-0.015480738133192062
1745104525780364000,9.386364013671875,0.0024377978406846523,0.006208687089383602,-0.015070078894495964
1745104525790321200,9.396321044921875,-0.0016736873658373952,-0.0065534962341189384,-0.00884215347468853
1745104525800278300,9.4062783203125,-0.006084947381168604,-0.010249963961541653,-0.004209318198263645
1745104525810234000,9.416234130859374,-0.009443460032343864,-0.00548968929797411,0.0034942610654979944
1745104525820191200,9.426191162109374,-0.012864557094871998,-0.013539094477891922,0.01059478148818016
1745104525830148000,9.436148193359376,-0.009814098477363586,-0.015054265037178993,0.0123146316036582
1745104525840105000,9.44610498046875,-0.0063549187034368515,-0.006101250648498535,0.019173335283994675
1745104525850062000,9.45606201171875,-0.006907742470502853,-0.007360502146184444,0.013531900942325592
1745104525860019200,9.466019287109376,-0.004412094596773386,-0.0034171591978520155,0.010850097052752972
1745104525869976000,9.47597607421875,0.004516733810305595,0.005434813443571329,0.01011606864631176
1745104525879933200,9.48593310546875,0.006031273864209652,0.00303424010053277,0.0037047744262963533
1745104525889889300,9.49588916015625,0.006768291816115379,0.0069435532204806805,-0.003717003855854273
1745104525899846100,9.50584619140625,0.008073506876826286,0.012889591977000237,-0.01370439026504755
1745104525909803300,9.51580322265625,0.008557403460144997,0.007015990559011698,-0.012966960668563843
1745104525919760100,9.525760009765625,0.007928098551928997,0.005641267169266939,-0.01638406328856945
1745104525929717000,9.535717041015625,0.005110304336994886,0.007133752107620239,-0.015923192724585533
1745104525939674000,9.545674072265625,-0.0012437317054718733,0.0023022452369332314,-0.01256601233035326
1745104525949631200,9.55563134765625,0.0007312677334994078,-0.0005719773471355438,-0.007935162633657455
1745104525959588000,9.565588134765624,-0.0016828877851366997,-0.0028412570245563984,-0.004553746897727251
1745104525969544200,9.575544189453124,-0.006840025540441275,-0.007351013831794262,0.0044092233292758465
1745104525979501300,9.585501220703126,-0.007040828000754118,-0.006760324817150831,0.00829371064901352
1745104525989458200,9.595458251953126,-0.006561120506376028,-0.005638027563691139,0.01332851592451334
1745104525999415000,9.6054150390625,-0.004727001767605543,-0.011731872335076332,0.017479050904512405
1745104526009372200,9.6153720703125,-0.004492304287850857,-0.004213335923850536,0.020368829369544983
1745104526019329000,9.6253291015625,-0.0028041263576596975,0.0009183092042803764,0.015323472209274769
1745104526029286100,9.6352861328125,-0.00035249313805252314,-0.003985143732279539,0.013565417379140854
1745104526039243300,9.6452431640625,0.004714703653007746,-0.0006537956651300192,0.005528796464204788
1745104526049199000,9.65519921875,0.004285711795091629,0.009594463743269444,-0.0009941293392330408
1745104526059156200,9.66515625,0.003708072006702423,0.006720113568007946,-0.0044021764770150185
1745104526069113300,9.67511328125,0.007163673639297485,0.003802445251494646,-0.008845211006700993
1745104526079070200,9.6850703125,0.005921841133385897,0.009445417672395706,-0.015101509168744087
1745104526089027000,9.695027099609375,0.003592544235289097,0.0033760233782231808,-0.01526516955345869
1745104526098984200,9.704984130859375,0.003527030348777771,0.002545117400586605,-0.01495704147964716
1745104526108941000,9.714941162109374,0.0021936828270554543,0.003484322689473629,-0.01089569739997387
1745104526118898200,9.724898193359374,-0.0019350156653672457,-0.004220202099531889,-0.003953635226935148
1745104526128854000,9.73485400390625,-0.003009287640452385,-0.002044913126155734,-0.0009351256885565817
1745104526138811100,9.74481103515625,-0.003145108697935939,0.0006147860549390316,0.006796297617256641
1745104526148768300,9.754768310546876,-0.003344457596540451,-0.006886874325573444,0.009817427955567837
1745104526158725400,9.764725341796876,-0.001770795788615942,-0.009211281314492226,0.012802032753825188
1745104526168682000,9.774681884765625,-0.005544785410165787,-0.00039702607318758965,0.014170855283737183
1745104526178638800,9.784638916015625,-0.006713380105793476,-0.0028034583665430546,0.012557245790958405
1745104526188596000,9.794595947265625,-0.0009568851673975587,-0.004284808412194252,0.006684422958642244
1745104526198553000,9.804552978515625,0.0018426296301186085,0.0020758858881890774,0.006807195022702217
1745104526208509000,9.814509033203125,-0.002434237627312541,-0.00007599825039505959,-0.0030799335800111294
1745104526218466000,9.824466064453125,0.0026587918400764465,0.004993861541152,-0.005456272047013044
1745104526228423200,9.834423095703125,0.004890351556241512,0.007767327595502138,-0.007330994587391615
1745104526238380000,9.844380126953125,0.004416841082274914,0.0010055610910058022,-0.014244293794035912
1745104526248337200,9.854337158203125,0.001895239343866706,0.005849259439855814,-0.01613692194223404
1745104526258294000,9.8642939453125,0.001958888955414295,0.006994419265538454,-0.01439388282597065
1745104526268251000,9.8742509765625,0.0018632087158039212,-0.004240292590111494,-0.013444446958601475
1745104526278208000,9.8842080078125,0.0006895535625517368,0.002459155395627022,-0.007107721641659737
1745104526288164000,9.8941640625,-0.0011730369878932834,0.004596350714564323,-0.00019624305423349142
1745104526298121000,9.904120849609376,-0.002837779000401497,-0.0032834098674356937,0.002384892664849758
1745104526308078000,9.914078125,0.0023103777784854174,-0.006157226860523224,0.010525909252464771
1745104526318035200,9.92403515625,-0.0029043578542768955,-0.0005922855343669653,0.010103798471391201
1745104526327992000,9.933991943359375,-0.005551152862608433,-0.004293347708880901,0.016642695292830467
1745104526337949000,9.943948974609375,-0.0023793282452970743,-0.006055295001715422,0.01605227403342724
1745104526347906000,9.953906005859375,-0.0015442577423527837,-0.0025318567641079426,0.010961111634969711
1745104526357863000,9.96386279296875,-0.003006066894158721,-0.004251460079103708,0.008419923484325409
1745104526367819000,9.973819091796875,0.0003806996392086148,-0.0008310133125633001,0.0016615163767710328
1745104526377775900,9.98377587890625,-0.0009886978659778833,0.0039522903971374035,-0.0064102583564817905
1745104526387733000,9.99373291015625,0.001649283803999424,-0.004591463599354029,-0.005873594433069229
1745104526397690000,10.003690185546875,0.005684238858520985,0.00573307927697897,-0.011937878094613552
1745104526407647200,10.013647216796874,0.0028265221044421196,0.008471932262182236,-0.017417147755622864
1745104526417604000,10.02360400390625,0.006435371935367584,0.004709684755653143,-0.011776571162045002
1745104526427561000,10.03356103515625,0.006694860756397247,0.0023834635503590107,-0.011847268790006638
1745104526437518000,10.04351806640625,0.005210148170590401,0.007738281041383743,-0.008675443939864635
1745104526447474000,10.053473876953126,0.0020365803502500057,0.000504394993185997,-0.002897530095651746
1745104526457431000,10.06343115234375,-0.0026990524493157864,0.0020927046425640583,0.002882061991840601
1745104526467388000,10.073387939453125,-0.0001303125754930079,-0.00013150880113244057,0.01081287581473589
1745104526477345000,10.083344970703125,-0.004445166327059269,-0.005191515199840069,0.012411038391292095
1745104526487302100,10.09330224609375,-0.0029496559873223305,-0.0035422779619693756,0.015749657526612282
1745104526497259300,10.10325927734375,-0.00589378084987402,-0.004199279937893152,0.01603967696428299
1745104526507216000,10.1132158203125,-0.003683550516143441,-0.012165427207946777,0.011517609469592571
1745104526517173000,10.123173095703125,-0.00529289897531271,-0.005172764882445335,0.008669358678162098
1745104526527128800,10.13312890625,-0.007847935892641544,0.0030444185249507427,0.002177637070417404
1745104526537086000,10.1430859375,-0.0035775566939264536,-0.00402414333075285,0.000418619136326015
1745104526547043000,10.15304296875,0.003810560330748558,-0.003283526748418808,-0.0044012125581502914
1745104526557000000,10.163,0.0026408997364342213,0.006070027593523264,-0.012383504770696163
1745104526566957000,10.17295703125,0.0010070506250485778,0.004681455437093973,-0.01477529015392065
1745104526576914200,10.1829140625,0.0066169993951916695,0.006935022305697203,-0.01449752226471901
1745104526586870800,10.192870849609376,0.010610530152916908,0.007112573832273483,-0.012876924127340317
1745104526596828000,10.202827880859376,0.007801427505910397,0.005141035653650761,-0.008472322486341
1745104526606784000,10.212783935546875,0.004068910609930754,0.00703717116266489,-0.003922482021152973
1745104526616740900,10.222740966796875,0.005616473499685526,0.0063245100900530815,0.0014046388678252697
1745104526626698000,10.232697998046875,0.0027436709497123957,-0.0068842521868646145,0.007344463374465704
1745104526636655000,10.242655029296875,-0.0014201814774423838,-0.002446893136948347,0.012577841058373451
1745104526646612000,10.252612060546875,-0.0048605953343212605,0.0002717026509344578,0.014552794396877289
1745104526656569000,10.262569091796875,-0.007796464022248983,-0.008795294910669327,0.015676649287343025
1745104526666526000,10.27252587890625,-0.005214093718677759,-0.011650379747152328,0.01360335387289524
1745104526676482800,10.28248291015625,-0.007955818437039852,-0.003013215959072113,0.009458943270146847
1745104526686439000,10.29243896484375,-0.010189289227128029,-0.006108017172664404,0.0021865679882466793
1745104526696396000,10.30239599609375,-0.0052595119923353195,-0.005524784792214632,-0.0012470453511923552
1745104526706353000,10.312352783203124,-0.0015153740532696247,-0.00038674846291542053,-0.005715563427656889
1745104526716310000,10.32231005859375,0.001000780495814979,-0.0009742416441440582,-0.008300960063934326
1745104526726267100,10.33226708984375,0.0018369635799899697,0.006218674127012491,-0.009648339822888374
1745104526736224000,10.34222412109375,0.00717340549454093,0.010206757113337517,-0.013669979758560658
1745104526746181000,10.35218115234375,0.007733686827123165,0.0032341773621737957,-0.011012615635991096
1745104526756138000,10.362137939453126,0.00936194323003292,0.008654243312776089,-0.007602437864989042
1745104526766094000,10.372093994140625,0.006365136709064245,0.012390535324811935,-0.005559827666729689
1745104526776051000,10.382051025390625,0.004658583085983992,0.004667367786169052,0.0019686624873429537
1745104526786008000,10.392008056640625,0.003230329602956772,0.000009232200682163239,0.008460916578769684
1745104526795965000,10.40196484375,-0.002380151767283678,0.001701671164482832,0.009724054485559464
1745104526805922000,10.411922119140625,-0.00664871372282505,-0.0056425463408231735,0.011393239721655846
1745104526815879200,10.421879150390625,-0.0051344409584999084,-0.0089568505063653,0.013932829722762108
1745104526825836000,10.4318359375,-0.005186372436583042,-0.008704116567969322,0.014873192645609379
1745104526835792100,10.441792236328125,-0.007635149173438549,-0.014557212591171265,0.012317090295255184
1745104526845749200,10.451749267578125,-0.011468624696135521,-0.00900392048060894,0.004787495359778404
1745104526855705900,10.461705810546874,-0.004006447270512581,-0.0032059522345662117,-0.002148175146430731
1745104526865663000,10.4716630859375,-0.001368609955534339,-0.008019625209271908,-0.005164246540516615
1745104526875620000,10.4816201171875,0.00035765115171670914,0.001868159044533968,-0.008067358285188675
1745104526885577000,10.491576904296876,0.001785201602615416,0.01007381547242403,-0.008983490988612175
1745104526895534000,10.5015341796875,0.008007943630218506,0.005637521855533123,-0.011506304144859314
1745104526905491200,10.5114912109375,0.013126394711434841,0.007645462639629841,-0.00995654333382845
1745104526915447000,10.521447021484375,0.01125818770378828,0.012082289904356003,-0.0103203309699893
1745104526925404200,10.531404052734375,0.007765814661979675,0.00821063481271267,-0.003886789781972766
1745104526935361000,10.541361083984375,0.008574617095291615,0.005008982494473457,-0.0000899211154319346
1745104526945318000,10.55131787109375,0.005381631664931774,0.005544752348214388,0.004759510047733784
1745104526955275000,10.56127490234375,-0.002543669193983078,-0.002436208538711071,0.005772842559963465
1745104526965232000,10.571232177734375,-0.004862193483859301,-0.004974051844328642,0.007840150035917759
1745104526975189000,10.58118896484375,-0.004694946575909853,-0.004266183357685804,0.010939536616206169
1745104526985146000,10.59114599609375,-0.00785805657505989,-0.01658799685537815,0.009057232178747654
1745104526995102000,10.60110205078125,-0.012717792764306068,-0.009937817230820656,0.0041628750041127205
1745104527005059000,10.61105908203125,-0.011659572832286358,-0.0066487472504377365,0.004941279999911785
1745104527015016200,10.62101611328125,-0.008520504459738731,-0.010644287802278996,-0.001957105938345194
1745104527024972800,10.630972900390624,0.00008738809265196323,-0.0038291090168058872,-0.004281085915863514
1745104527034930000,10.640929931640626,-0.00010862055933102965,0.007200905587524176,-0.005038488656282425
1745104527044887000,10.650886962890626,0.0024557379074394703,0.003973545506596565,-0.006221050396561623
1745104527054844200,10.66084423828125,0.008747455663979053,0.007222602143883705,-0.008602716028690338
1745104527064801000,10.670801025390626,0.011317744851112366,0.01176052913069725,-0.006993120536208153
1745104527074757000,10.680757080078125,0.008104907348752022,0.007125031668692827,-0.006180856376886368
1745104527084714000,10.6907138671875,0.009723552502691746,0.011922034434974194,-0.0039322469383478165
1745104527094671000,10.700671142578125,0.008226322941482067,0.004916323348879814,0.004079073667526245
1745104527104628000,10.7106279296875,0.0057893129996955395,-0.003118260530754924,0.005020413082093
1745104527114584800,10.720584716796875,-0.0032963277772068977,-0.0006934523116797209,0.003929581958800554
1745104527124542000,10.7305419921875,-0.005735564976930618,0.0004761745221912861,0.00484565319493413
1745104527134499000,10.7404990234375,-0.008345995098352432,-0.01453100424259901,0.01006624847650528
1745104527144456000,10.7504560546875,-0.010621496476233006,-0.01269267313182354,0.009637069888412952
1745104527154412000,10.760412109375,-0.010780220851302147,-0.006061935797333717,0.005437531042844057
1745104527164369200,10.770369140625,-0.011891485191881657,-0.012287566438317299,0.0013574023032560945
1745104527174325500,10.780325439453126,-0.0061787390150129795,-0.006290393881499767,0.00023328204406425357
1745104527184282600,10.79028271484375,-0.0016937332693487406,0.00037801219150424004,-0.00007527373963966966
1745104527194239500,10.800239501953126,-0.0016079795313999057,-0.0012640932109206915,-0.0020340285263955593
1745104527204196400,10.8101962890625,0.00782094243913889,0.00695042684674263,-0.007228790782392025
1745104527214153500,10.820153564453125,0.013585354201495647,0.010611474514007568,-0.010812340304255486
1745104527224110300,10.8301103515625,0.009357222355902195,0.008861602284014225,-0.010702108964323997
1745104527234066400,10.84006640625,0.010922362096607685,0.014718693681061268,-0.007866108790040016
1745104527244023300,10.850023193359375,0.009328654035925865,0.013494539074599743,-0.006886580027639866
1745104527253980400,10.85998046875,0.009169396944344044,0.0023052669130265713,-0.0013003337662667036
1745104527263937500,10.8699375,0.0024947645142674446,0.0020742625929415226,-0.00029451987938955426
1745104527273894700,10.879894775390625,-0.001384662464261055,-0.000009128358215093613,0.0014762160135433078
1745104527283851300,10.889851318359375,-0.007371182087808847,-0.0073171090334653854,0.0024328231811523438
1745104527293808400,10.899808349609375,-0.0063224295154213905,-0.013368610292673111,0.011230576783418655
1745104527303765500,10.909765625,-0.0086893979460001,-0.011903727427124977,0.009982052259147167
1745104527313721300,10.919721435546874,-0.014085494913160801,-0.013076850213110447,0.007674956228584051
1745104527323678500,10.929678466796876,-0.012492949143052101,-0.009410079568624496,0.006619889289140701
1745104527333635300,10.93963525390625,-0.0053412956185638905,-0.008089950308203697,0.006452109664678574
1745104527343592400,10.949592529296876,-0.0020133615471422672,-0.006046614609658718,0.00217021768912673
1745104527353549600,10.959549560546876,-0.0017704812344163656,0.0036592762917280197,-0.0015257173217833042
1745104527363506400,10.96950634765625,0.0037864455953240395,0.008681990206241608,-0.006081630941480398
1745104527373463300,10.97946337890625,0.011828659102320671,0.003944492433220148,-0.005605724174529314
1745104527383420400,10.98942041015625,0.012716219760477543,0.010471184737980366,-0.0075239501893520355
1745104527393376300,10.999376220703125,0.007459671702235937,0.01942659728229046,-0.012031883001327515
1745104527403333400,11.00933349609375,0.00992956105619669,0.006963576190173626,-0.008013072423636913
1745104527413290500,11.01929052734375,0.00906030461192131,0.00545436330139637,-0.0036851693876087666
1745104527423247400,11.029247314453125,0.005248739384114742,0.006652753800153732,-0.002933950861915946
1745104527433204500,11.03920458984375,-0.0016022424679249525,-0.0034467517398297787,0.002278920728713274
1745104527443161600,11.04916162109375,-0.002839788794517517,-0.005592703819274902,0.005506155081093311
1745104527453118200,11.0591181640625,-0.006153559777885675,-0.008459064178168774,0.010243652388453484
1745104527463075300,11.069075439453124,-0.014252233318984509,-0.015713781118392944,0.01007321011275053
1745104527473031400,11.079031494140626,-0.012848480604588985,-0.011328354477882385,0.012815200723707676
1745104527482988300,11.08898828125,-0.009256166405975819,-0.006090598180890083,0.00835344661027193
1745104527492945400,11.0989453125,-0.0077030109241604805,-0.012675529345870018,0.009644546546041965
1745104527502902500,11.108902587890626,-0.004556416068226099,-0.00443792250007391,0.006319537293165922
1745104527512859400,11.118859375,-0.0008658075821585953,0.004290587734431028,0.0003687039716169238
1745104527522816500,11.12881640625,0.0006290758028626442,0.0016009355895221233,-0.003890784690156579
1745104527532773400,11.1387734375,0.010028170421719551,0.009773644618690014,-0.004862305708229542
1745104527542730200,11.148730224609375,0.014183378778398037,0.012853939086198807,-0.006149479653686285
1745104527552686300,11.158686279296875,0.011859770864248276,0.00841444917023182,-0.009245670400559902
1745104527562643500,11.1686435546875,0.010826997458934784,0.012346198782324791,-0.008712089620530605
1745104527572600300,11.178600341796875,0.01059743296355009,0.007809770759195089,-0.008351498283445835
1745104527582557400,11.188557373046875,0.006774367764592171,-0.00028002168983221054,-0.006931525655090809
1745104527592514600,11.1985146484375,-0.0013874222058802843,0.0011050882749259472,-0.0022267852909862995
1745104527602471400,11.208471435546874,-0.004423376638442278,-0.0025301100686192513,-0.0009454519604332745
1745104527612428500,11.218428466796874,-0.007833554409444332,-0.010923327878117561,0.01052158698439598
1745104527622385400,11.228385498046874,-0.009165764786303043,-0.011168780736625195,0.00910396222025156
1745104527632341500,11.238341552734376,-0.01200789026916027,-0.006392668001353741,0.009828342124819756
1745104527642298400,11.24829833984375,-0.011902428232133389,-0.011974528431892395,0.01149003580212593
1745104527652255500,11.25825537109375,-0.007744701579213142,-0.007629048079252243,0.010438086465001106
1745104527662212400,11.26821240234375,-0.003025314537808299,-0.0007507610134780407,0.008303415961563587
1745104527672169500,11.27816943359375,-0.0020061228424310684,-0.005813163705170155,0.0033568600192666054
1745104527682126600,11.288126708984375,0.0057371631264686584,0.005086015909910202,-0.0013855888973921537
1745104527692083500,11.29808349609375,0.009817126207053661,0.007761694490909576,-0.004426652565598488
1745104527702040300,11.308040283203125,0.0069334800355136395,0.0069039128720760345,-0.010139117017388344
1745104527711996700,11.31799658203125,0.010010762140154839,0.013857160694897175,-0.010474675334990025
1745104527721953300,11.327953369140625,0.012205085717141628,0.011550272814929485,-0.010185109451413155
1745104527731910400,11.337910400390625,0.008699567057192326,0.0053770653903484344,-0.013687166385352612
1745104527741867500,11.347867431640625,0.0035457212943583727,0.007128168363124132,-0.010841572657227516
1745104527751824400,11.357824462890624,0.0014942882116883993,0.006729493383318186,-0.00936405174434185
1745104527761781500,11.367781494140624,-0.00466272234916687,-0.005095632281154394,-0.0032616225071251392
1745104527771738600,11.377738525390624,-0.004864323418587446,-0.008185165002942085,0.002733152825385332
1745104527781695500,11.387695556640624,-0.00872513186186552,-0.007063717115670443,0.004334735684096813
1745104527791651600,11.397651611328126,-0.012171529233455658,-0.012040899135172367,0.00801708921790123
1745104527801608400,11.4076083984375,-0.00911547988653183,-0.008900457993149757,0.009562886320054531
1745104527811565300,11.4175654296875,-0.007877375930547714,-0.005104388110339642,0.010267558507621288
1745104527821522400,11.4275224609375,-0.0053234281949698925,-0.008705930784344673,0.007716888561844826
1745104527831479600,11.4374794921875,-0.0011481242254376411,-0.0018797162920236588,0.0038060364313423634
1745104527841436400,11.4474365234375,0.004717245697975159,0.006619505118578672,0.00037406320916488767
1745104527851393500,11.4573935546875,0.006251226179301739,0.0020308783277869225,-0.004572492558509111
1745104527861350700,11.4673505859375,0.007348957471549511,0.011514652520418167,-0.007100141141563654
1745104527871306500,11.477306396484375,0.007456815801560879,0.01207152009010315,-0.01121179573237896
1745104527881263600,11.487263671875,0.008135486394166946,0.008314115926623344,-0.013558430597186089
1745104527891220200,11.49722021484375,0.005058202892541885,0.007020084653049707,-0.014574426226317883
1745104527901177300,11.50717724609375,0.00371747137978673,0.00855135265737772,-0.011160662397742271
1745104527911134500,11.517134521484374,0.0018852163339033723,0.00013709533959627151,-0.005831144750118256
1745104527921091600,11.527091552734374,-0.0029630446806550026,-0.0017626537010073662,-0.0018660693895071745
1745104527931048400,11.53704833984375,-0.003961463924497366,-0.00557576771825552,0.002982215490192175
1745104527941005600,11.547005615234376,-0.0086294524371624,-0.01066426932811737,0.009765020571649075
1745104527950962400,11.55696240234375,-0.00853943731635809,-0.00945199839770794,0.011842019855976105
1745104527960918500,11.56691845703125,-0.006860629189759493,-0.007532690651714802,0.015077436342835426
1745104527970875400,11.57687548828125,-0.007825758308172226,-0.01200174167752266,0.016944846138358116
1745104527980832300,11.586832275390625,-0.006162251345813274,-0.006651401519775391,0.015316199511289597
1745104527990789400,11.596789306640625,-0.001859115669503808,-0.0015759493689984083,0.007539769168943167
1745104528000746500,11.60674658203125,0.00007387890946120024,-0.005473976954817772,0.005132904276251793
1745104528010703400,11.616703369140625,0.0035234717652201653,0.004445499274879694,0.003771495772525668
1745104528020660500,11.626660400390625,0.007098232861608267,0.00946316123008728,-0.00376178789883852
1745104528030616600,11.636616455078125,0.006837242748588324,0.00789855420589447,-0.009128323756158352
1745104528040573400,11.646573486328125,0.008329242467880249,0.010743925347924232,-0.011970306746661663
1745104528050530600,11.656530517578124,0.007014439906924963,0.01021795067936182,-0.013443034142255783
1745104528060487400,11.6664873046875,0.006103783845901489,0.00026565976440906525,-0.013309263624250889
1745104528070444300,11.6764443359375,0.005817227531224489,0.0033826236613094807,-0.00708945095539093
1745104528080401400,11.6864013671875,0.0010495646856725216,0.0019268975593149662,-0.005668221041560173
1745104528090358500,11.696358642578126,-0.006249360740184784,-0.0053437985479831696,0.00025305140297859907
1745104528100315400,11.7063154296875,-0.003648058045655489,-0.006116813980042934,0.0019481719937175512
1745104528110271500,11.716271484375,-0.005495492834597826,-0.008106994442641735,0.010532605461776257
1745104528120228600,11.726228515625,-0.009694378823041916,-0.010275155305862427,0.013197962194681168
1745104528130185500,11.736185546875,-0.007695941720157862,-0.009896454401314259,0.012941233813762665
1745104528140142300,11.746142333984375,-0.004694801289588213,-0.0033923331648111343,0.014809337444603443
1745104528150099500,11.756099365234375,-0.004251651465892792,-0.007488807663321495,0.00877354945987463
1745104528160056300,11.766056396484375,0.00013363058678805828,-0.00330664636567235,0.00480654276907444
1745104528170014000,11.776013916015625,0.0023515112698078156,0.0060841916128993034,0.003224092535674572
1745104528179971000,11.78597119140625,0.0020972988568246365,0.0033543859608471394,-0.004101429134607315
1745104528189928000,11.795927978515625,0.00389360124245286,0.007778961677104235,-0.011473325081169605
1745104528199884000,11.805884033203125,0.009399591945111752,0.009992655366659164,-0.013715699315071106
1745104528209841000,11.8158408203125,0.005170225631445646,0.005960630252957344,-0.0143378134816885
1745104528219797800,11.8257978515625,0.007291045505553484,0.00802917405962944,-0.013680584728717804
1745104528229755000,11.8357548828125,0.0029365108348429203,0.009447041898965836,-0.011958318762481213
1745104528239712000,11.8457119140625,0.002947260159999132,-0.00010859686881303787,-0.007738130167126656
