time,seconds_elapsed,z,y,x
1744927499611725800,0.034725830078125,-0.3551444673229009,-0.103065822198987,0.6029851460834965
1744927499621683700,0.04468359375,-0.3737222534775734,-0.13109656941890716,0.6168597595158964
1744927499631643000,0.054642822265625,-0.3358669354010373,-0.1957224785864353,0.4469697509201243
1744927499641601800,0.064601806640625,-0.2420996143579483,-0.11906593988537788,0.15626774422293527
1744927499651560700,0.074560791015625,-0.0925181977648288,0.02181611048877239,-0.1365467976488173
1744927499661518800,0.084518798828125,-0.0787059455115348,0.08826748151779175,-0.367642568237707
1744927499671477800,0.094477783203125,-0.018523571749404073,0.05020107797384262,-0.4492367460040375
1744927499681436700,0.104436767578125,0.017380758389830588,0.01774666909277439,-0.36224436245597896
1744927499691395800,0.114395751953125,0.06144084939062595,0.038382629886269566,-0.12090358537500724
1744927499701353700,0.124353759765625,0.2238087553858757,0.15056348643302916,0.184735713816341
1744927499711313000,0.13431298828125,0.46461065808348356,0.2527501877099275,0.4635476319618523
1744927499721271800,0.144271728515625,0.5366355183959007,0.25769816550612445,0.5359455633703619
1744927499731230700,0.154230712890625,0.3636159430701285,0.16679507478773592,0.36167723009251057
1744927499741188900,0.16418896484375,0.2937753679942339,0.03920622122883796,0.10066007623150944
1744927499751147800,0.174147705078125,0.15340543186068534,0.11881751808226108,-0.17243675220282748
1744927499761106700,0.184106689453125,-0.06345226227827369,0.17226970680654047,-0.45599246734194454
1744927499771064800,0.19406494140625,-0.3091840225934982,-0.04312485597729682,-0.5766230992607771
1744927499781023700,0.204023681640625,-0.4827641544114798,-0.2540770523995161,-0.34430012496449053
1744927499790982700,0.213982666015625,-0.40946116392202675,-0.21346680959165096,0.17063335604267194
1744927499800941800,0.22394189453125,-0.1811426760267466,-0.1212351006180048,0.6406915206760168
1744927499810899700,0.233899658203125,-0.16253274116814134,0.04546352805793285,0.644715296299383
1744927499820858600,0.243858642578125,-0.07032682422287762,0.03196808666884899,0.15055742201842368
1744927499830817800,0.25381787109375,-0.048998789511993525,-0.24149229611456394,-0.469823935752362
1744927499840776700,0.263776611328125,-0.16305055449716746,0.05528700293600559,-0.4019531994447112
1744927499850734600,0.273734619140625,-0.12583010025806723,0.092569562625885,-0.23223429136583582
1744927499860693800,0.28369384765625,-0.15823416719138622,0.14140052129030226,-0.4203052870847285
1744927499870652700,0.293652587890625,-0.04547171136438846,-0.278568519577384,-0.24410253341188654
1744927499880611600,0.303611572265625,-0.2351754411179572,-0.016907880181074142,-0.11271112749855965
1744927499890569700,0.31356982421875,0.16661496898047626,0.219093417301774,-0.06849432983240113
1744927499900528600,0.323528564453125,0.45748774740099907,0.2544476392775774,0.17479414725024253
1744927499910487600,0.333487548828125,0.18242160992138087,0.23494974260330198,0.4251283233270049
1744927499920446700,0.34344677734375,0.21622100367061792,-0.03706628659069538,0.5695861863613129
1744927499930404600,0.353404541015625,0.3558469165038317,-0.006932429611682891,0.49095652095638215
1744927499940363500,0.363363525390625,0.1812912176519632,0.2895475942313671,0.4256427025899291
1744927499950322700,0.37332275390625,0.14409874739833176,0.21762743640244006,0.44263643442355094
1744927499960281900,0.38328173828125,-0.05799750400371849,-0.04012684320509433,0.2803221035127528
1744927499970239700,0.39323974609375,-0.2932119619578123,-0.18257716580927372,-0.008054802971426397
1744927499980198700,0.40319873046875,-0.1886650343555957,-0.1588409009128809,-0.21420957251666112
1744927499990157800,0.41315771484375,-0.20761391884498298,0.039303836384415626,-0.3244879016440362
1744927500000116700,0.42311669921875,-0.24195341082029043,0.07642331446707248,-0.4330043173991143
1744927500010075000,0.433074951171875,-0.21005612436532972,-0.06098901396989822,-0.5149366776112467
1744927500020033800,0.44303369140625,-0.08059102860577404,-0.11319091037213802,-0.4912470648681745
1744927500029992700,0.45299267578125,0.04449314865581691,0.04345043466985225,-0.3556596137708053
1744927500039952000,0.462951904296875,0.08366429857127368,0.15744330907464027,-0.17284831041209398
1744927500049909800,0.47290966796875,0.12043773969523608,0.11643091520667076,0.04322680024811998
1744927500059869000,0.482868896484375,0.07863755645044147,0.05572948600649833,0.2204586960393004
1744927500069827800,0.492827880859375,0.06020750820338726,0.031010639813542365,0.38873284866996105
1744927500079786800,0.502786865234375,0.1448287421733141,0.0010614917516708372,0.49537196277845646
1744927500089745000,0.512744873046875,-0.012709843969345092,0.03980243355631828,0.5095510025175288
1744927500099703800,0.522703857421875,-0.1982634683061391,0.029134909069538115,0.495052265837416
1744927500109662700,0.532662841796875,-0.1333551620006561,-0.06776362267136574,0.4510871596436947
1744927500119621600,0.54262158203125,-0.13941380445249377,-0.073934420260787,0.1664071166497655
1744927500129579800,0.552579833984375,-0.15456453876793383,-0.0559270544052124,-0.06339218438779935
1744927500139538700,0.56253857421875,0.07818572102971375,-0.002496492990851402,-0.15522402558997273
1744927500149497900,0.572497802734375,0.09853636207580566,0.22698387829065322,-0.26107310356562957
1744927500159456800,0.582456787109375,0.14747026965804397,0.2072036575436592,-0.48379941574335095
1744927500169414700,0.59241455078125,0.33642215813100335,0.05236556253135204,-0.5526689538300037
1744927500179373800,0.602373779296875,0.19533136037699877,0.05616320124864578,-0.45178201004005963
1744927500189332700,0.612332763671875,0.10522263490669428,0.11654255888760089,-0.24729427865790202
1744927500199291000,0.622290771484375,0.17084230435192585,0.1231213527560234,-0.07519660395001992
1744927500209249800,0.632249755859375,0.007955269853398204,0.11135434259474276,0.0521543491997756
1744927500219208700,0.642208740234375,-0.05524783996939659,-0.055178281864523886,0.21774278814410788
1744927500229167600,0.652167724609375,-0.08152326795458793,-0.15128887809813021,0.39476580869127065
1744927500239125800,0.662125732421875,-0.17581775467693805,-0.003896422916650772,0.4729897063069045
1744927500249084700,0.672084716796875,-0.17500585377216338,0.06333236222565174,0.4757522298227995
1744927500259043600,0.682043701171875,-0.06740005005598068,-0.032172084808349606,0.40161066961735487
1744927500269002800,0.692002685546875,-0.17246851731427013,-0.06751695443391799,0.3181256731357425
1744927500278960600,0.701960693359375,-0.1939934628367424,-0.09086451227366923,0.18372902099182828
1744927500288919800,0.711919921875,-0.06205225928723812,-0.032469021928310395,-0.06103393082385882
1744927500298878700,0.721878662109375,0.021584566755220292,0.1182721591591835,-0.21873452086150644
1744927500308837600,0.731837646484375,0.066118193551898,0.19895488463640212,-0.2862652846250683
1744927500318795800,0.741795654296875,0.02746376098692417,0.00469078816473484,-0.38150735439583655
1744927500328754700,0.751754638671875,0.05205518140792846,-0.1332598849326372,-0.39459699146300553
1744927500338713600,0.761713623046875,0.10018003762960434,0.056098903840780256,-0.3054917622131295
1744927500348672500,0.771672607421875,0.1628179878503084,0.27046120096743104,-0.18720016770111395
1744927500358630700,0.781630615234375,0.2630132230490446,0.13611644340753554,-0.07834155091224237
1744927500368589600,0.791589599609375,0.16689787757508456,0.01984802528619766,0.04037274425756186
1744927500378548700,0.801548828125,0.0396486312340945,-0.002162146469950676,0.20103600175939498
1744927500388508000,0.8115078125,0.14258943881392477,0.05194003059566021,0.35104989148564636
1744927500398465500,0.821465576171875,0.03242226017713547,0.1224415537983179,0.3559729540362954
1744927500408425000,0.831425048828125,-0.0853980635613203,0.06509644928872585,0.29182288221959024
1744927500418384000,0.8413837890625,-0.15795125859677792,-0.10891571727097034,0.36043292911984026
1744927500428342800,0.8513427734375,-0.2297766508143395,-0.09957739556133746,0.33698198397085066
1744927500438301000,0.861301025390625,-0.1718587148528546,-0.04728022209107875,0.11342751387329772
1744927500448259800,0.871259765625,-0.04637830481529236,0.0041559506356716154,-0.13304907345985992
1744927500458218800,0.88121875,-0.1105821891784668,0.06733458360433578,-0.17102803618237375
1744927500468178000,0.891177978515625,-0.1463537597835064,-0.003583703705668449,-0.13985380330495537
1744927500478135800,0.9011357421875,-0.021130977768823504,-0.10365034408867359,-0.27605449092984197
1744927500488094500,0.911094482421875,-0.05331826014630496,0.02423077041506767,-0.44222259292565286
1744927500498053600,0.9210537109375,-0.20712825421988962,-0.008367430850863456,-0.4258655515603721
1744927500508012500,0.931012451171875,-0.5745697469275445,-0.35007308234274387,-0.44706966763064265
1744927500517970700,0.940970703125,-0.7954507052332163,-0.3643254795789718,-0.389468944392167
1744927500527929600,0.9509296875,-0.5283376456499099,-0.04144377102255821,-0.2124248627906665
1744927500537888500,0.960888427734375,-0.05733524070270359,0.18642565793097018,-0.045482123160548504
1744927500547847400,0.970847412109375,0.3123801882863045,0.26812545149624345,0.1827630985691212
1744927500557805600,0.9808056640625,0.8722101197868585,0.3149590988636017,0.598110781512782
1744927500567764500,0.990764404296875,1.1384750381082296,0.4434329185634851,0.9339121773969381
1744927500577723400,1.000723388671875,0.9049929569046944,0.43164603465795515,0.7237876639705151
1744927500587681500,1.010681640625,0.45705987737774845,0.09364859003424644,0.22436012392463162
1744927500597640400,1.020640380859375,-0.11699556335210799,-0.14556640879809857,-0.015242193724866956
1744927500607599600,1.030599609375,-0.5275491256207228,-0.10508125367462634,-0.01205289616426453
1744927500617558500,1.04055859375,-0.44221718609817323,-0.07470482011139393,0.10192982217269017
1744927500627516400,1.050516357421875,-0.2886580249805003,0.05176408950686454,0.016718348958343267
1744927500637475600,1.0604755859375,0.08051255654208361,0.07559563147127628,-0.13702493655458092
1744927500647434500,1.0704345703125,0.461366561595723,0.153503047016263,-0.28667834067167713
1744927500657393400,1.080393310546875,0.5700186594944447,0.3117360451638698,-0.41741380342692136
1744927500667351600,1.0903515625,0.45133740807771683,0.1897410660892725,-0.49834005533643067
1744927500677310500,1.100310546875,0.007484291340783238,-0.026350246787071225,-0.48246670583486556
1744927500687269400,1.110269287109375,-0.37560565607137975,-0.15361995139420032,-0.3142336341332644
1744927500697228500,1.120228515625,-0.3210393686253577,-0.16662848604917524,0.1467789081267081
1744927500707186400,1.1301865234375,-0.12447802806198596,-0.0887222395479679,0.8484019586980343
1744927500717145300,1.140145263671875,0.011526698599383234,0.03996785325109958,1.432577080773562
1744927500727104500,1.1501044921875,-0.009128478351235389,0.08424071021974086,1.2087157184176147
1744927500737063700,1.160063720703125,-0.009523030626773834,0.05283259552121162,0.4784901668867096
1744927500747021300,1.170021240234375,-0.05582768568396568,-0.0162953012406826,-0.1388067236711271
1744927500756980500,1.17998046875,-0.29169227810986337,-0.11244798305034637,-0.4556584130819887
1744927500766939600,1.189939697265625,-0.3798655054729432,-0.10744155306518077,-0.7596481549680233
1744927500776898600,1.199898681640625,-0.20573234288208186,-0.0034258827954530714,-0.9628453533492982
1744927500786856400,1.2098564453125,-0.08145597487203776,0.1563479150533676,-0.7149553920868784
1744927500796815600,1.219815673828125,0.035810733571648594,0.0939554640263319,-0.1947186353061348
1744927500806774500,1.2297744140625,0.03454064057059586,-0.021177228063344954,0.2154098151518963
1744927500816733700,1.239733642578125,0.1626835478156805,0.028694764086604117,0.42392771536558865
1744927500826691600,1.249691650390625,0.33732173731923104,0.09121405636370182,0.5812376803841441
1744927500836650500,1.259650390625,0.1731961740016937,0.11778642146885394,0.6861907045692205
1744927500846609700,1.269609619140625,-0.12683065560273826,-0.09265607186555862,0.5307928567823023
1744927500856567600,1.279567626953125,-0.35479653066806494,-0.2445043374121189,0.12040926251942291
1744927500866526700,1.289526611328125,-0.5262386275440454,-0.08378887479901313,-0.39995201569013294
1744927500876485600,1.299485595703125,-0.4948118812102824,-0.03239829477965832,-0.5885061004845425
1744927500886444500,1.309444580078125,-0.484517866211012,-0.12360007618367672,-0.4902403720436617
1744927500896402700,1.319402587890625,-0.32136779686212535,-0.12586392946243286,-0.32426804834827777
1744927500906361600,1.329361572265625,0.1738151096176356,0.0218681329369545,-0.10523242564834653
1744927500916320500,1.339320556640625,0.8030787158936261,0.35500644709169865,0.372979070427455
1744927500926279400,1.349279541015625,1.5764789173603058,0.5759095441639424,0.9383481140177696
1744927500936237600,1.359237548828125,1.4670476517826319,0.6774415809243917,0.7362116036705673
1744927500946196500,1.369196533203125,0.6225591402012854,0.4142454025238752,-0.06488203935306519
1744927500956155600,1.37915576171875,-0.1815799714654684,-0.058413026002049444,-0.5865453948708251
1744927500966114600,1.389114501953125,-1.354805420437455,-0.3251478999227285,-0.307704451560229
1744927500976072400,1.399072509765625,-1.7307400892674922,-0.6336480319052934,0.09307519232677296
1744927500986031600,1.409031494140625,-1.3978361683905123,-0.57423547347188,-0.2299767216973938
1744927500995990500,1.418990478515625,-0.44685814377181227,-0.14547522338330746,-0.821632025194168
1744927501005949400,1.428949462890625,0.585449525925517,0.35054712959527967,-0.8252635135643184
1744927501015907600,1.438907470703125,1.0196943449050186,0.4286328243166208,-0.2544317475887015
1744927501025866500,1.448866455078125,0.7724912699282169,0.09528934297859668,0.44249870645329353
1744927501035825400,1.458825439453125,0.3428922309279442,-0.020216858598589897,0.8431912383124232
1744927501045784600,1.46878466796875,0.0749712890278548,0.10100947419106959,0.8474431966684758
1744927501055742500,1.478742431640625,-0.09973996571190655,0.1311684656113386,0.6138895845986903
1744927501065701400,1.488701416015625,-0.2664103912066668,-0.10103636219799518,0.20238295938894152
1744927501075660500,1.49866064453125,-0.2498895375818014,-0.21027473555207252,-0.40197979519069194
1744927501085618400,1.508618408203125,-0.07521627676486968,0.03176993374824524,-0.8935705954626202
1744927501095577600,1.51857763671875,0.2735264337569475,0.26781916202604766,-0.9894068317342549
1744927501105536500,1.52853662109375,0.3969313526947051,0.3062865475863218,-0.6986234851628541
1744927501115495400,1.538495361328125,0.36655725721903143,0.22295243081748484,-0.2647744240352884
1744927501125453600,1.54845361328125,0.18401691628880798,0.12795710234940053,0.1499914769650437
1744927501135412500,1.55841259765625,-0.07846504942774772,-0.03363865022957325,0.4636862001823261
1744927501145371400,1.568371337890625,-0.4262344579380005,-0.194451143476367,0.7030692855905741
1744927501155330300,1.578330322265625,-0.6650379533600062,-0.1864858636856079,0.6482369676195084
1744927501165288400,1.588288330078125,-0.47718328553922473,-0.14739596231281757,0.3382194168113172
1744927501175247400,1.598247314453125,-0.08425115854851901,-0.07039046404361725,-0.03225601849844679
1744927501185206500,1.60820654296875,0.25061719426922496,0.04930091426372528,-0.06167157114027068
1744927501195165700,1.618165771484375,0.5375853664666413,0.20017828895151615,0.13393177457852287
1744927501205123300,1.628123291015625,0.5345657994497567,0.24458500143289563,0.060474762571137396
1744927501215082800,1.638082763671875,0.47242688479237255,0.4435387170255184,-0.15244959244057535
1744927501225041700,1.648041748046875,0.3193798379153013,0.26372400166690346,-0.23366432416895402
1744927501235000600,1.65800048828125,0.032030045989155764,-0.10359890616238117,0.07887315530460327
1744927501244958700,1.667958740234375,-0.20225341472513972,-0.20463234575092792,0.5565493754599243
1744927501254917600,1.677917724609375,-0.19944127991385757,-0.14269465275406837,0.6034421326033771
1744927501264876500,1.68787646484375,-0.13960947315506636,0.005062544086575508,0.36466304097026586
1744927501274835700,1.697835693359375,-0.253195008867979,0.02993336597084999,0.06750758381737396
1744927501284793600,1.707793701171875,-0.24646657739579675,-0.022671266013383862,-0.13397543105715884
1744927501294752500,1.71775244140625,-0.08386778525412082,-0.07794716303348541,-0.14663135288218035
1744927501304711700,1.727711669921875,0.11843699433207511,0.15074293465316294,0.12659439916145054
1744927501314669600,1.737669677734375,0.2152776584059,0.23815350708067415,0.32238723957035686
1744927501324628500,1.74762841796875,0.10342756818346678,0.048586043992638585,0.15078144003264604
1744927501334587600,1.757587646484375,0.06600304273962974,-0.07384908006489277,0.09372633144557475
1744927501344546600,1.767546630859375,0.02711472835354507,-0.03401391328275204,0.23652192382346837
1744927501354504700,1.777504638671875,-0.025924130329489706,0.00856675281524658,0.24277256344975903
1744927501364463600,1.787463623046875,-0.13998831640481949,-0.038733927541971205,-0.12336350921513511
1744927501374422500,1.797422607421875,-0.4429104290593415,-0.13498656259477138,-0.6886113558448851
1744927501384381400,1.80738134765625,-0.4930296009033918,-0.10381517926156521,-0.9129608670439571
1744927501394339600,1.817339599609375,-0.3487608307003975,-0.015105214673280715,-0.8551977563180029
1744927501404298500,1.827298583984375,-0.22776187692582606,0.006057400342822075,-0.6401955538526177
1744927501414257400,1.83725732421875,-0.2262958960264921,-0.07298632575571537,-0.4484950973238796
1744927501424216600,1.847216552734375,-0.1025035121411085,-0.09594576106071472,-0.20185212218156084
1744927501434174500,1.857174560546875,0.11745455916598438,0.07482406257688999,0.17832129846308378
1744927501444133600,1.867133544921875,0.20127017584145068,0.27840543797016143,0.5726275998838245
1744927501454092500,1.877092529296875,0.2740069107502699,0.17008067232966423,0.7808776977404952
1744927501464051500,1.887051513671875,0.295163753612712,0.00639876112639904,0.8715854120172559
1744927501474009600,1.897009521484375,0.2812707642734051,0.09031506169736385,0.8871001573394983
1744927501483968800,1.90696875,0.3957031991392374,0.19681728808581828,0.7517131972502916
1744927501493927700,1.916927734375,0.33658056356310845,0.2334381689965725,0.45753304784744975
1744927501503886600,1.926886474609375,0.20160802949368953,0.1648743358582258,0.13242854867503046
1744927501513844700,1.9368447265625,0.06893858473487198,0.040277649852633476,-0.12718591704750432
1744927501523803600,1.9468037109375,-0.1068470212381333,-0.051348494443297386,-0.42274033221192653
1744927501533762800,1.9567626953125,-0.2543897716104984,-0.07172668108344078,-0.6979091994136571
1744927501543721700,1.9667216796875,-0.4032985496390611,-0.06606500205993653,-0.8375147270459681
1744927501553679600,1.9766796875,-0.47226621433794497,-0.13079729421138764,-0.7919276456736027
1744927501563638800,1.986638671875,-0.40023390137143433,-0.18376257620155811,-0.647390506858006
1744927501573597700,1.99659765625,-0.3561288021851331,-0.11052782864272594,-0.48332405331656336
1744927501583555600,2.0065556640625,-0.2761228799909353,-0.05024842424690723,-0.1594704857870005
1744927501593514800,2.0165146484375,-0.09111286101154982,-0.05696867241263389,0.20240858702054246
1744927501603473700,2.0264736328125,0.04814005379080772,0.05413841742277145,0.5327766510106623
1744927501613432600,2.0364326171875,0.25027597961612047,0.13655658839046955,0.7363046157162636
1744927501623390700,2.046390625,0.4571506244011223,0.1869739394634962,0.7807938188493251
1744927501633349600,2.056349609375,0.445003528881073,0.25105682779550553,0.7748699817582965
1744927501643308500,2.06630859375,0.43264439804553984,0.22936171333789823,0.6885443550232797
1744927501653267700,2.076267822265625,0.39348610761165614,0.1719762768179178,0.4595499406278133
1744927501663225600,2.0862255859375,0.28663075693659484,0.1466407600313425,0.11676341683035715
1744927501673184500,2.0961845703125,0.1702128473419696,0.11175883174240589,-0.12251394318109378
1744927501683144000,2.10614404296875,-0.028977672681212423,0.03584755845069885,-0.3334340822309255
1744927501693102800,2.116102783203125,-0.2381476618617773,-0.06429916143119335,-0.6205708159282803
1744927501703060700,2.126060791015625,-0.4329940152008086,-0.10828034197688102,-0.7870510526131838
1744927501713020000,2.13602001953125,-0.4809451953560114,-0.18076339438557623,-0.7818804450422525
1744927501722978800,2.145978759765625,-0.5691647460788488,-0.1832189708441496,-0.6114754361290484
1744927501732937700,2.155937744140625,-0.5830670877683908,-0.17490122435390948,-0.42512890784889457
1744927501742895900,2.165895751953125,-0.41700259227752684,-0.17007774972021578,-0.19458260610261932
1744927501752854800,2.175854736328125,-0.31249358553290363,-0.07835925096571444,0.15531882773395628
1744927501762813700,2.185813720703125,-0.05846614442877471,0.019919921478629112,0.5046586638987064
1744927501772771800,2.195771728515625,0.16651209312789142,0.06423194141387939,0.6305961700540036
1744927501782730800,2.205730712890625,0.35645657283477483,0.1735971560180187,0.6425562916345894
1744927501792690000,2.21568994140625,0.5491396106600761,0.25845687491893765,0.749313296501711
1744927501802648800,2.22564892578125,0.7314116560429335,0.3114239104747772,0.7500581965848803
1744927501812606700,2.235606689453125,0.6024615240681916,0.3353098129749298,0.46246235747579484
1744927501822566000,2.24556591796875,0.4900334147620946,0.234832253703475,0.18759395279167218
1744927501832524800,2.25552490234375,0.390266049586609,0.13598141885101794,-0.004496964359376579
1744927501842483700,2.265483642578125,0.08004844616167246,0.14644319163262842,-0.3000012750380672
1744927501852441900,2.27544189453125,-0.19519823551662266,-0.03665010700523853,-0.704689799464494
1744927501862400800,2.28540087890625,-0.4901636900782585,-0.24484219106435776,-0.8726901583887636
1744927501872359700,2.295359619140625,-0.711459074403718,-0.2878577414482832,-0.7232078913211822
1744927501882318800,2.30531884765625,-0.6556172871291637,-0.25117256312966346,-0.4884785865355283
1744927501892276700,2.31527685546875,-0.598135404497385,-0.14975684622526167,-0.40380832579210396
1744927501902235600,2.325235595703125,-0.5385217705339193,-0.12790391085743905,-0.22241355643412097
1744927501912194800,2.33519482421875,-0.33620471598803997,-0.17833587497770786,0.20692907838597893
1744927501922153700,2.34515380859375,-0.06348368032984435,-0.07893032885193824,0.5167836937174201
1744927501932111600,2.355111572265625,0.18897819195799528,0.16106968287825582,0.5729627501223236
1744927501942070800,2.36507080078125,0.5653683494705707,0.2792167543530464,0.5611900774052366
1744927501952029700,2.37502978515625,0.7556827584683895,0.3733031512826681,0.6507705046851188
1744927501961987800,2.38498779296875,0.7554699925005436,0.3532224862843752,0.6744951522089541
1744927501971946800,2.39494677734375,0.6412490814935415,0.25699206306338307,0.4021550056271255
1744927501981905700,2.40490576171875,0.4105506396591663,0.17705226490795611,0.11415064051607623
1744927501991864600,2.414864501953125,0.1275742405116558,0.10238894585072994,-0.06842248843889683
1744927502001822700,2.42482275390625,-0.17748948728144168,-0.0008902268379926681,-0.2601038018757477
1744927502011781600,2.43478173828125,-0.5242196889370679,-0.12381518023908138,-0.5981005523797124
1744927502021740800,2.44474072265625,-0.5992611205916851,-0.33588498251438137,-0.8351078120347112
1744927502031699700,2.45469970703125,-0.6194833860177547,-0.27457974220216275,-0.727568716879189
1744927502041657600,2.46465771484375,-0.6466560551036149,-0.11298457414507865,-0.43971419030129905
1744927502051616800,2.47461669921875,-0.48506724372208115,-0.12799977244734764,-0.21526713701188563
1744927502061575700,2.48457568359375,-0.35036994639746843,-0.13983224906027317,-0.08461222867956385
1744927502071534600,2.49453466796875,-0.25109073006510735,-0.0840256061643362,0.21303932316089047
1744927502081492700,2.50449267578125,0.09670622403919696,0.010465864434838294,0.5219879843622446
1744927502091451600,2.51445166015625,0.20656068346500395,0.18249708631038664,0.5744865986887365
1744927502101410600,2.52441064453125,0.544023802016303,0.21990999438166617,0.5438517333850265
1744927502111369700,2.53436962890625,0.8539338007967918,0.30389819114506245,0.6087564594939351
1744927502121327600,2.54432763671875,0.8881056080549955,0.5354658900946379,0.5743206310046837
1744927502131286500,2.55428662109375,0.759210348072648,0.4191512947440147,0.29464446071265266
1744927502141246000,2.564245849609375,0.4838146133124828,0.1165250232309103,-0.08901517634624614
1744927502151204900,2.574204833984375,0.20232056167721746,0.054610126587748525,-0.14184755267174914
1744927502161162800,2.584162841796875,0.02911496226005256,0.12842647342681884,-0.20958693595100192
1744927502171122000,2.594121826171875,-0.5153227543193847,0.01042903955578804,-0.5313525364916771
1744927502181080800,2.604080810546875,-0.7728115879237651,-0.4050771766841411,-0.6661231913134456
1744927502191038700,2.614038818359375,-0.953262263098359,-0.5271101496815681,-0.35467246589697893
1744927502200998000,2.623997802734375,-1.1501203946512193,-0.29082243647277356,-0.17239994559008628
1744927502210956800,2.633956787109375,-0.809694334641099,-0.2774959219098091,-0.36347441570758815
1744927502220915700,2.643915771484375,-0.47378246411979197,-0.2130243265211582,-0.3002138218102045
1744927502230873900,2.653873779296875,-0.22839900578558445,0.022506430840492246,0.14747337493058293
1744927502240832800,2.663832763671875,0.14182313061654567,0.11201485233008861,0.5042251313196495
1744927502250791700,2.673791748046875,0.5719646059304475,0.1707914509475231,0.36904311921801414
1744927502260750800,2.683750732421875,0.7184861234962939,0.4137660945743322,0.26300049143163484
1744927502270708700,2.693708740234375,0.9086877928346395,0.4394079008311033,0.5507077367596328
1744927502280668000,2.70366796875,0.8848867190737276,0.39464521451890466,0.6889908566817641
1744927502290626800,2.713626708984375,0.5333990206927061,0.3228542360275984,0.33130912596620615
1744927502300585700,2.723585693359375,0.4729880988717079,0.05710369696915149,-0.01898284155791625
1744927502310544000,2.7335439453125,0.35740364442653955,0.10753098491430282,0.05325873024510219
1744927502320502800,2.743502685546875,0.062004328492283815,0.22933950150609014,0.0044795748331584034
1744927502330461700,2.753461669921875,-0.2140180137336254,0.04276245240569115,-0.37407815424315627
1744927502340420600,2.763420654296875,-0.4788298106372356,-0.2581622758865356,-0.6092778895521536
1744927502350378800,2.773378662109375,-0.6957897230416535,-0.31295944947898385,-0.458521547428146
1744927502360337700,2.783337646484375,-0.8975784428644925,-0.2617594235956669,-0.34767055124565954
1744927502370296800,2.793296875,-0.811216502707079,-0.33011984311640263,-0.4704870758362114
1744927502380255700,2.803255859375,-0.5362064062636346,-0.2692524096995592,-0.3992780984839424
1744927502390213600,2.813213623046875,-0.3830676625151187,0.0018330606460571289,0.028327647807262837
1744927502400172800,2.8231728515625,-0.030919454398751257,0.033625206226110455,0.33588900110237296
1744927502410131700,2.833131591796875,0.31178331837169826,0.03169862207770347,0.3524063475959003
1744927502420089600,2.843089599609375,0.4168909485965967,0.2605430335432291,0.3610706425014883
1744927502430048800,2.853048828125,0.6331938583970069,0.35710429615378375,0.5928297723699361
1744927502440007700,2.863007568359375,0.7207539953630417,0.316094240373373,0.5922278609540313
1744927502449966600,2.872966552734375,0.4884849432110786,0.2759703197777271,0.32483342714607716
1744927502459924700,2.8829248046875,0.5564630123507232,0.10175707768797874,0.19242948318934067
1744927502469883600,2.892883544921875,0.52705052844882,0.16423954508602617,0.18811646056212483
1744927502479842600,2.902842529296875,0.17161394631154833,0.28175884005129337,-0.07078991168998182
1744927502489801700,2.9128017578125,0.015170096603035926,0.0957856020629406,-0.4047800934337079
1744927502499759600,2.922759521484375,-0.1513104323428124,-0.10873042383193969,-0.46717243486288934
1744927502509718800,2.93271875,-0.6702982119757682,-0.13538228391408919,-0.46176984516698866
1744927502519677700,2.942677734375,-0.8413426878362894,-0.38390404027402397,-0.5238127155713737
1744927502529636600,2.95263671875,-0.7755027267038822,-0.5196937359452247,-0.5306905289189889
1744927502539594800,2.9625947265625,-1.0155880786299705,-0.23391981503367423,-0.22992057106336578
1744927502549553700,2.9725537109375,-0.8289607606470585,-0.19363398187458514,0.14953350406447424
1744927502559512600,2.9825126953125,-0.45965157437138254,-0.2202928562194109,0.2792706399647519
1744927502569471500,2.992471435546875,-0.4308095838338136,-0.11170330216288565,0.23256967906635254
1744927502579429600,3.0024296875,0.13284136725962162,-0.06827449480295181,0.4076205775566399
1744927502589388500,3.012388427734375,0.543974263786152,0.30164369021654125,0.6212819598723203
1744927502599347700,3.02234765625,0.8040946149379015,0.5806681368678808,0.5322867120692506
1744927502609305600,3.0323056640625,1.0940654030174017,0.487137620255351,0.3046596405042335
1744927502619264500,3.042264404296875,1.1797534625012427,0.40323359464406966,0.2463180175042711
1744927502629223700,3.0522236328125,1.1465712508022785,0.4817489129543304,0.216331587905623
1744927502639182600,3.0621826171875,1.0366408035308121,0.4801385551482439,-0.013711166498996317
1744927502649140500,3.072140380859375,0.5780594887394458,0.42227848685383795,-0.2625925499515608
1744927502659099600,3.082099609375,0.10212773763127625,0.1282663144290447,-0.37250484051182864
1744927502669058600,3.09205859375,-0.3514052077293396,-0.2653010417252779,-0.36488596300594506
1744927502679017500,3.102017578125,-1.1134698492545634,-0.43806408500671384,-0.4980983920676633
1744927502688975600,3.1119755859375,-1.5245195975422858,-0.6017290450751781,-0.5417155250739306
1744927502698934500,3.1219345703125,-1.6002029072970152,-0.6130173318088055,-0.3228653419435024
1744927502708893400,3.1318935546875,-1.6618477548271418,-0.5527975486457347,-0.09231414482640102
1744927502718852600,3.1418525390625,-1.2113017893880604,-0.5995359189450741,0.10049898565197363
1744927502728810500,3.151810546875,-0.5470305095516145,-0.2964700869709253,0.22559538307432084
1744927502738769400,3.161769287109375,-0.15147819012515246,0.22556582818627355,0.33203619813174007
1744927502748728600,3.171728515625,0.5716776787478477,0.3020575317144394,0.43816140790134667
1744927502758687500,3.1816875,0.9582336217701435,0.34524960770905017,0.43718985945545136
1744927502768645600,3.191645751953125,1.2239409062087536,0.5453793813437223,0.4622778312217444
1744927502778604500,3.2016044921875,1.7401298489034174,0.6732230864465236,0.4881491353854537
1744927502788563700,3.211563720703125,1.7327572743088007,0.8480313718199729,0.26197962395129726
1744927502798522600,3.221522705078125,1.2553507744729517,0.7114449728131294,-0.0642228995908983
1744927502808480500,3.23148046875,0.9072281686108559,0.3239677502274513,-0.14647521247239784
1744927502818439700,3.241439697265625,0.3437707673281431,0.14553484461605548,-0.15258991422671825
1744927502828398600,3.251398681640625,-0.22976737152934074,-0.021060323685407636,-0.35172435668110846
1744927502838356500,3.2613564453125,-0.7309265028744936,-0.268611189186573,-0.47707463753297924
1744927502848315600,3.271315673828125,-1.3915531425982712,-0.4326987585812807,-0.40169706925917414
1744927502858274800,3.28127490234375,-1.7074807942330836,-0.715298725631833,-0.23021009206185117
1744927502868233700,3.291233642578125,-1.7838754671275614,-0.8693488851368427,-0.20127320804875343
1744927502878191600,3.301191650390625,-1.5952654508948325,-0.6585118395268916,-0.18387975457413122
1744927502888150800,3.31115087890625,-1.032183824121952,-0.31819735013246536,0.027207795198168603
1744927502898109700,3.321109619140625,-0.4301350455731153,-0.09852116450667381,0.22599346074750645
1744927502908068600,3.331068603515625,0.039628319098427886,0.07694236990511417,0.23373539837747812
1744927502918026800,3.34102685546875,0.7298609194695949,0.24766601631343363,0.22539310196787118
1744927502927985700,3.350985595703125,1.346282506763935,0.5838228015065193,0.3856366362202912
1744927502937944600,3.360944580078125,1.5962392643630503,0.8546516667425632,0.3876069133799523
1744927502947903700,3.37090380859375,1.6379846486806868,0.7609750196576118,0.2328317823349498
1744927502957861600,3.380861572265625,1.4695494054704903,0.5533674574881792,0.143759542039223
1744927502967820500,3.390820556640625,1.1876618975382298,0.47540860401690005,0.14229714133646337
1744927502977779700,3.40077978515625,0.7101287025827914,0.3805886321157217,0.011158413276262581
1744927502987738600,3.410738525390625,0.18881642552502453,0.17314999677240847,-0.13977388820284978
1744927502997696500,3.420696533203125,-0.4270119451165199,-0.15134733028709887,-0.19586513846013695
1744927503007655700,3.43065576171875,-1.110829490813613,-0.4008990142166614,-0.18812586771128698
1744927503017614600,3.440614501953125,-1.5638409695833921,-0.6771154177099465,-0.23308572056340052
1744927503027572700,3.45057275390625,-1.7751134840011595,-0.7934720986366272,-0.3353814899716526
1744927503037531600,3.46053173828125,-1.7234020014643667,-0.6803460701942443,-0.3219629132110625
1744927503047490600,3.470490478515625,-1.4519938750356436,-0.4597106841474771,-0.11068024272546172
1744927503057449500,3.480449462890625,-0.9265086231421679,-0.3259346663862467,0.029419461631961165
1744927503067407600,3.49040771484375,-0.2741103711247444,-0.14620704478919505,0.014494151836540549
1744927503077366500,3.500366455078125,0.32051556394696235,0.19001754494309425,0.12389118635104969
1744927503087325700,3.51032568359375,0.9919377384513616,0.4750958848059177,0.2609778812965378
1744927503097284600,3.52028466796875,1.4329559970885515,0.6946709481447935,0.31538459426667537
1744927503107242500,3.530242431640625,1.6447364610284565,0.7450818694770336,0.20879719207910818
1744927503117201700,3.54020166015625,1.7206296141415833,0.7006406702041625,0.2303692829452455
1744927503127160600,3.55016064453125,1.5254764598757027,0.6414455539137125,0.2811417675988748
1744927503137119500,3.560119384765625,1.0314870740294455,0.554184619089961,0.2293606173593551
1744927503147077600,3.57007763671875,0.46514790676534173,0.24444237809181213,0.12351785952663048
1744927503157036500,3.58003662109375,-0.15627083122916519,-0.06694003132879733,0.006957235259376466
1744927503166995500,3.589995361328125,-0.9387433969456702,-0.32691490959525105,-0.022130126607697455
1744927503176954600,3.59995458984375,-1.3955530258893967,-0.617827946960926,-0.10098766421806067
1744927503186912500,3.60991259765625,-1.633007590920478,-0.7088678158015013,-0.20954282281463965
1744927503196871400,3.619871337890625,-1.8773831873863935,-0.6554799244850874,-0.2948883524711244
1744927503206830600,3.62983056640625,-1.6256255178451537,-0.6630144116431474,-0.2918818458652124
1744927503216789800,3.639789794921875,-1.2562170359134672,-0.48275195251703257,-0.21937681908672674
1744927503226747400,3.649747314453125,-0.7487644304472952,-0.24557401247024535,-0.23889035172155126
1744927503236706600,3.65970654296875,-0.07933131086826324,0.0037619828820228576,-0.20208759317155925
1744927503246665700,3.669665771484375,0.5352578003019094,0.2771732658267021,-0.05380781549522653
1744927503256623600,3.67962353515625,1.1088116481851786,0.5201595998913049,0.15983484385367483
1744927503266582800,3.689582763671875,1.5571750819534063,0.7242477557629347,0.2058236744273454
1744927503276541700,3.699541748046875,1.7923644785314796,0.7824322337061166,0.18537350026322527
1744927503286500600,3.70950048828125,1.8308675199270248,0.7779244008928536,0.3436457527089864
1744927503296458800,3.719458740234375,1.5452718781918287,0.7061679091930388,0.42336558797080065
1744927503306417700,3.729417724609375,1.0288216542124748,0.5014379482865333,0.38887583733722564
1744927503316376600,3.73937646484375,0.40628772151768205,0.1818371610969305,0.23808290779618546
1744927503326335700,3.749335693359375,-0.3173503779143095,-0.10846037471890449,0.16267134592123328
1744927503336293600,3.759293701171875,-0.9877641790937631,-0.3763081783175468,0.05619748711073771
1744927503346252800,3.769252685546875,-1.4728385101437569,-0.5722539442658424,-0.15476274648746474
1744927503356211700,3.779211669921875,-1.5971733303427695,-0.7030255195140839,-0.38485279236622155
1744927503366170600,3.789170654296875,-1.6875293085724115,-0.6208294668644666,-0.4902833709351718
1744927503376128800,3.799128662109375,-1.619453551211953,-0.5348135636657476,-0.42612208360470827
1744927503386087700,3.809087646484375,-1.1532985862959175,-0.5486234778314829,-0.29748775784717874
1744927503396046600,3.819046630859375,-0.6816828717559575,-0.31325638659894467,-0.33013577133789657
1744927503406005500,3.829005615234375,0.018478417433425782,0.06793371854126452,-0.1629233844535425
1744927503415963600,3.838963623046875,0.7614332848191261,0.4219137451946735,0.08749112685043364
1744927503425922600,3.848922607421875,1.0496019919127226,0.6445669008046389,0.17777139122905208
1744927503435881700,3.8588818359375,1.2769699010848998,0.5232692563444375,0.21622739687878637
1744927503445840600,3.868840576171875,1.3606816189944744,0.4632184000074863,0.39483372282832857
1744927503455798500,3.878798583984375,1.084886582718417,0.5562807145863771,0.5480457510087638
1744927503465757700,3.8887578125,0.9412865055572242,0.42649464324414726,0.503500616437383
1744927503475716600,3.898716552734375,0.4969043965101242,0.22905542386770247,0.29936940687531605
1744927503485675300,3.90867529296875,-0.06807977594844997,0.06064297701120376,0.20728726244019344
1744927503495634400,3.918634521484375,-0.1618984618525952,-0.20175006831288336,0.1453640546264127
1744927503505593300,3.92859326171875,-0.4618388552825898,-0.18315584248006342,-0.14044924844745546
1744927503515552300,3.93855224609375,-0.7669722142457962,-0.11978607085347175,-0.44069688119571654
1744927503525510400,3.948510498046875,-0.7023222666155546,-0.3101239337921142,-0.4294198830410838
1744927503535469300,3.95846923828125,-0.8992828356295823,-0.3566840249150991,-0.3028046785536222
1744927503545428200,3.96842822265625,-0.8621283592987805,-0.3304191183239221,-0.4295603874903172
1744927503555387100,3.97838720703125,-0.44741409715414043,-0.3040881607592106,-0.3411654802005738
1744927503565345300,3.98834521484375,-0.04960135851502418,0.023377368456125258,-0.122204877231922
1744927503575304200,3.99830419921875,-0.04566584569700062,0.39735155086815355,0.20039563976293429
1744927503585263400,4.008263427734375,0.451457746521756,0.14951426964104175,0.26936018092297015
1744927503595222300,4.01822216796875,0.5622644651710986,0.03442717025876045,0.274544141165819
1744927503605180200,4.02818017578125,0.5747171195089816,0.2751128261655569,0.4522896673012525
1744927503615139300,4.038139404296875,0.8715548707485199,0.4491144713312387,0.5411317338366061
1744927503625098200,4.04809814453125,0.7395487122040242,0.48793607715666293,0.398196988716349
1744927503635057200,4.05805712890625,0.4610381333589554,0.2513531803935766,0.24331856169365346
1744927503645015300,4.068015380859375,0.2544336107522249,-0.04564999054074287,0.2672830823879689
1744927503654974200,4.07797412109375,-0.04470825271122157,-0.08724924438595771,0.003519698558747768
1744927503664933000,4.08793310546875,-0.3804219703119248,-0.01134089370369911,-0.22693539950642733
1744927503674892300,4.097892333984375,-0.5078291836936026,-0.102224695199728,-0.43020730709172783
1744927503684850200,4.10785009765625,-0.9257991596985607,-0.22555764487981794,-0.5251531703948974
1744927503694809000,4.11780908203125,-1.0929922938931733,-0.4944412212669849,-0.4934880121953785
1744927503704768300,4.127768310546875,-0.7766302694290876,-0.5775695863306523,-0.5125231136634946
1744927503714726100,4.13772607421875,-0.5240396561950444,-0.058359249988198275,-0.49264414524976163
1744927503724685300,4.147685302734375,-0.18469605765938757,0.21548048750162124,-0.24799700183346865
1744927503734644200,4.157644287109375,0.39737025556862354,0.09588730887174605,0.1499845540339127
1744927503744603100,4.16760302734375,0.43702538960874077,0.2033686094254255,0.37324119196236133
1744927503754561300,4.177561279296875,0.5871100795488804,0.26419571083188054,0.5408958061888813
1744927503764520200,4.187520263671875,1.0048193587910383,0.29567513720095157,0.6965890567258
1744927503774479000,4.19747900390625,0.7231084495346993,0.5019155026704073,0.7422802560597658
1744927503784438000,4.20743798828125,0.45756950740031893,0.3867886557996273,0.5348163401447236
1744927503794396200,4.217396240234375,0.4642565108835697,0.0019546411991119383,0.33107001998070623
1744927503804355000,4.22735498046875,0.330212855162099,0.02598492060601711,0.18608873586049302
1744927503814314200,4.237314208984375,0.004802504910901189,0.18432780886888503,0.03033984614619985
1744927503824273400,4.2472734375,-0.22039923920333385,0.046232758864760394,-0.2158085686785169
1744927503834231000,4.25723095703125,-0.4727565551381558,-0.1865250266522169,-0.48393721677884455
1744927503844190200,4.267190185546875,-0.708157621705532,-0.33319033660292624,-0.6051333005607128
1744927503854149400,4.2771494140625,-0.8309686664033681,-0.38905660073161125,-0.5922465656545013
1744927503864108300,4.2871083984375,-0.7931079414993524,-0.2700871069580316,-0.5769707436546683
1744927503874066400,4.29706640625,-0.6916232510119676,-0.16438801364600658,-0.46614692774005234
1744927503884025300,4.307025390625,-0.37413594884499907,-0.10320376936495304,-0.2516252388006076
1744927503893984300,4.316984375,-0.24470300178937612,0.017488894939422607,0.008167579163517803
1744927503903943400,4.326943359375,-0.0128570704203099,-0.08755144220292568,0.15002954395310952
1744927503913901300,4.3369013671875,0.21281338718421755,0.015808979028463364,0.3418361094711348
1744927503923860200,4.346860107421875,0.33707908766977485,0.3179249629318714,0.5719240547243505
1744927503933819400,4.3568193359375,0.814076422182843,0.3211743201166391,0.501889053054899
1744927503943777300,4.36677734375,1.0287772305488585,0.39807460444569587,0.4817234862521291
1744927503953736200,4.376736083984375,0.8324369123250246,0.5115390710622072,0.5557678696934133
1744927503963695400,4.3866953125,0.7649777524929493,0.27814181859791276,0.44591724619250744
1744927503973654300,4.396654296875,0.5420540363132953,0.18057868546843528,0.24850898820990694
1744927503983612400,4.4066123046875,0.04190561638064682,0.21548574819862842,-0.06363388418918475
1744927503993571300,4.4165712890625,-0.1710649341266602,-0.07425064660310744,-0.2751735433768481
1744927504003530200,4.4265302734375,-0.6029354982554912,-0.2911205426365137,-0.39243608710207045
1744927504013489200,4.4364892578125,-0.9156237295776605,-0.36507074498832226,-0.5495115857776254
1744927504023447300,4.446447265625,-0.9670230774253606,-0.32202713755369183,-0.6062811554215848
1744927504033406200,4.45640625,-0.9938421107679605,-0.31064123566448687,-0.544403302853182
1744927504043365000,4.466365234375,-0.9710779057741165,-0.3615852409601211,-0.3571075840894133
1744927504053324300,4.47632421875,-0.7980009742379188,-0.36872166871130463,-0.27299848262639714
1744927504063282200,4.4862822265625,-0.28769341773204504,-0.19250643914937973,-0.1927233515693806
1744927504073241300,4.496241455078125,-0.014119126245379447,0.2026899795114994,0.10998981277588754
1744927504083200300,4.5062001953125,0.28746852293498815,0.29757074168920516,0.31702428776510055
1744927504093159200,4.5161591796875,0.7700280946850776,0.18238018193244934,0.44890470103807745
1744927504103117300,4.526117431640625,1.0453583629935979,0.34523207205235956,0.5236992452595383
1744927504113076200,4.536076171875,1.5273732334077357,0.6940946095615625,0.5804936205511912
1744927504123035100,4.54603515625,1.4566536835402248,0.9255652778774499,0.6890523776106536
1744927504132994000,4.555994140625,1.2978922776043413,0.5506242962598801,0.6073530224367976
1744927504142952200,4.5659521484375,0.5771400358069688,0.1519949805408716,0.4748518469169736
1744927504152911000,4.5759111328125,0.020727219273522494,-0.09687398182153702,0.2550189363595098
1744927504162870300,4.585870361328125,-0.4172392505776137,-0.12718494893312454,-0.024287761299312115
1744927504172828200,4.595828125,-0.8656927007168531,-0.20637305193841457,-0.4009028866741806
1744927504182787000,4.605787109375,-1.3717127160966396,-0.45735564545392987,-0.6839767548467963
1744927504192746200,4.615746337890625,-1.4486948334902525,-0.7353361360102891,-0.7701340392775833
1744927504202705200,4.625705078125,-1.4116612801253794,-0.5536591339111328,-0.7386428494054824
1744927504212663300,4.635663330078125,-1.1857019956421107,-0.34248423464894295,-0.778291188378632
1744927504222622200,4.645622314453125,-0.9660966102302074,-0.29654373672902584,-0.5509078259089961
1744927504232581000,4.6555810546875,-0.4827963761806488,-0.21812135739922522,-0.15140101496940478
1744927504242540000,4.6655400390625,-0.05656593683063984,0.04473346021771431,0.13947676841979845
1744927504252498200,4.675498291015625,0.5146188438337296,0.22388591227531432,0.29013092881096525
1744927504262457000,4.68545703125,1.1975948241401464,0.46546822476089,0.6635982759457081
1744927504272416300,4.695416259765625,1.561269073268771,0.780008805951476,0.7954002902202307
1744927504282375400,4.70537548828125,1.476978678688407,0.8480302027761936,0.7025811367474496
1744927504292333000,4.7153330078125,1.614382823818922,0.5300333436518907,0.7068456623241305
1744927504302292200,4.725292236328125,1.3052215975791215,0.4992249484121799,0.6197677559170872
1744927504312251400,4.73525146484375,0.5474292996108532,0.49646015987396236,0.3003136837217957
1744927504322210300,4.745210205078125,0.1472077462643385,0.023787118300795555,0.008161295553203671
1744927504332168400,4.75516845703125,-0.6021007279317826,-0.2754436655551195,-0.2391421893244609
1744927504342127400,4.76512744140625,-1.3543085768312215,-0.4040186075419187,-0.48882199314571917
1744927504352086300,4.775086181640625,-1.6333096426069735,-0.6773275991559028,-0.6185840990904719
1744927504362045200,4.785045166015625,-1.7947504968851804,-0.809903008955717,-0.7389580528344959
1744927504372003300,4.79500341796875,-1.6698066048771143,-0.6328197643876076,-0.7400823076240718
1744927504381962200,4.804962158203125,-1.1755086645383388,-0.4131213669300079,-0.6235032891836016
1744927504391921400,4.81492138671875,-0.7512217604715377,-0.1939145523816347,-0.37348303789421916
1744927504401880300,4.82488037109375,-0.1016319169383496,-0.020272388178110123,-0.007861764617357403
1744927504411838200,4.834838134765625,0.4497697934348136,0.19033377128541468,0.21589401847226544
1744927504421797400,4.84479736328125,0.8041612504333258,0.449044913226366,0.3848775249486789
1744927504431756300,4.85475634765625,1.353763217908144,0.5389776976078748,0.6603234189935028
1744927504441714200,4.864714111328125,1.7605904531300067,0.7483119374394417,0.7397220960095524
1744927504451673300,4.87467333984375,1.807629267680645,0.9314613501787186,0.6423296432718634
1744927504461632300,4.88463232421875,1.5347159973859785,0.6561772590994834,0.6384910880222916
1744927504471591200,4.894591064453125,1.1797563120454548,0.37063071720302104,0.5945473168775439
1744927504481549300,4.90454931640625,0.42939328729510307,0.3441466149032116,0.407451139273867
1744927504491507700,4.9145078125,-0.13268420393653213,0.007150456276535987,0.06034605815755203
1744927504501466600,4.924466552734375,-0.7399925104487687,-0.3733843998253345,-0.3283211231313646
1744927504511426000,4.934426025390625,-1.4609078338533639,-0.5763602105408907,-0.5088470554992556
1744927504521383700,4.9443837890625,-1.7298849337428808,-0.7743412817090749,-0.55730687929634
1744927504531342800,4.9543427734375,-1.8163988495916128,-0.712978758251667,-0.7730894550170749
1744927504541302000,4.964302001953125,-1.7515291947960852,-0.5310153404265642,-0.9017420653499663
1744927504551261000,4.974260986328125,-1.261198915979266,-0.5034434428900479,-0.7156807106867432
1744927504561219000,4.984218994140625,-0.6969184348106384,-0.29198855764269827,-0.4196423296639695
1744927504571178000,4.994177978515625,-0.05423712855689227,0.04004150300920009,-0.10226327364444732
1744927504581137000,5.004136962890625,0.652643824276328,0.37002807513475416,0.18086919284760952
1744927504591095800,5.014095703125,1.1694009222477675,0.637471974107623,0.48975299038551745
1744927504601054000,5.024053955078125,1.6123896041750907,0.682556731981039,0.7358950120020658
1744927504611012900,5.034012939453125,1.6386901666015385,0.6501549300700425,0.8738593482986092
1744927504620972000,5.043971923828125,1.645630779519677,0.6576409019112587,0.919687471885234
1744927504630931000,5.053930908203125,1.405101190957427,0.6851169378578662,0.8417749417737126
1744927504640888800,5.063888916015625,0.8080996858607977,0.49277474935948845,0.5468239541288465
1744927504650848000,5.073847900390625,0.12978197968900204,0.02944704375863075,0.24183710923055185
1744927504660807000,5.083806884765625,-0.48471952626295384,-0.32474282625317574,-0.06559449847135693
1744927504670764800,5.093764892578125,-0.9739608407992869,-0.3652127838075161,-0.3808937525421381
1744927504680724000,5.103723876953125,-1.3049199842840433,-0.4051011420816183,-0.6765717392873019
1744927504690683000,5.113682861328125,-1.5812649825930594,-0.6255979964405298,-0.8833478921338915
1744927504700641800,5.123641845703125,-1.6406021377027034,-0.7017652903199195,-0.9798591050576418
1744927504710600000,5.133599853515625,-1.325573480734229,-0.5840560257405042,-0.8114281726963818
1744927504720558800,5.143558837890625,-0.7469446676742285,-0.2368570375293493,-0.5831550583127886
1744927504730517800,5.153517822265625,-0.24454342731349168,0.14348843348026274,-0.3603769611489028
1744927504740477000,5.163476806640625,0.2352070053000003,0.22304946145117283,0.003877663417253643
1744927504750434800,5.173434814453125,0.7560515917807817,0.19855974783897398,0.4091675147376954
1744927504760394000,5.18339404296875,0.9399602984547615,0.47504093974828715,0.7351767807301134
1744927504770353000,5.193352783203125,1.3106038751393556,0.604463438475132,0.9401783251196145
1744927504780311800,5.203311767578125,1.4945178425103425,0.5943927108377218,1.0274245007656515
1744927504790270000,5.21327001953125,1.1111024625360966,0.6209358498483896,1.0091674709979443
1744927504800228900,5.223228759765625,0.8050514772713184,0.3419371221601963,0.8607130126081407
1744927504810187800,5.233187744140625,0.5845790997665375,0.024658055916428563,0.4224720001319423
1744927504820146700,5.243146728515625,-0.11418057899661362,0.048046530288457866,-0.09771300819525494
1744927504830104800,5.253104736328125,-0.43140638068318365,-0.055877370044589036,-0.3514950779698789
1744927504840063700,5.263063720703125,-0.6654775868862867,-0.2106184344232082,-0.6164074857037514
1744927504850023000,5.27302294921875,-1.1994329993527382,-0.39410862342417236,-0.9925259866680949
1744927504859981800,5.28298193359375,-1.2707155168652533,-0.6104319914907217,-1.1735901906311512
1744927504869939700,5.292939697265625,-1.2138006204664706,-0.5095277312397957,-1.0031732720844446
1744927504879899000,5.30289892578125,-1.146471297559142,-0.24979659860134124,-0.6943848977450281
1744927504889857800,5.31285791015625,-0.5838765044551343,-0.2290197680324316,-0.42565603699553756
1744927504899815700,5.322815673828125,-0.22120580634586512,-0.1033405474871397,-0.12416561937825754
1744927504909774800,5.33277490234375,0.07314297762215137,0.14614099381566048,0.4012795379668474
1744927504919733800,5.342733642578125,0.5630816267728805,0.2812473833978176,0.8187063470058142
1744927504929692700,5.352692626953125,0.7503788068413734,0.38040801485180853,0.9239878724928945
1744927504939650800,5.36265087890625,0.9372212288796901,0.36561902652084827,0.9374375750441104
1744927504949609700,5.372609619140625,1.0598456649642438,0.3627601299583912,1.0251245532602071
1744927504959569000,5.38256884765625,1.041146882778406,0.4788350713342428,0.8730245049096643
1744927504969528000,5.392528076171875,0.9875093275498599,0.4621954867005348,0.4240800563830882
1744927504979485700,5.402485595703125,0.7018114675492048,0.34208149906694885,-0.007289371556881815
1744927504989444900,5.41244482421875,0.20058402020819485,0.20069091464877128,-0.2545020180796273
1744927504999404000,5.422404052734375,-0.12980886769592762,-0.11352876402437687,-0.46433564053438603
1744927505009363000,5.432363037109375,-0.663746233049035,-0.26677403688728807,-0.8659972366213798
1744927505019321000,5.442321044921875,-1.0387794960599392,-0.307142287632823,-1.0614374642003328
1744927505029280000,5.452280029296875,-1.0100514872908593,-0.3986830917328596,-0.9068845428049563
1744927505039239000,5.462239013671875,-1.1970821984428912,-0.3872574423551559,-0.6426764108829199
1744927505049197800,5.47219775390625,-1.1095412045687436,-0.45707449042499065,-0.40000454959496856
1744927505059156000,5.482156005859375,-0.69949610327892,-0.4173831160277128,-0.09934044500030577
1744927505069115000,5.492114990234375,-0.43789800772480664,-0.04013444198966026,0.2197447208173573
1744927505079073800,5.50207373046875,0.06122289579100906,0.14683189868927002,0.6041727119002491
1744927505089033000,5.512032958984375,0.5663842485148459,0.18200842601060865,0.7997646229095756
1744927505098990800,5.521990966796875,0.6718675071191043,0.3663970251560211,0.8187789738506078
1744927505108950000,5.531949951171875,0.8491694359391927,0.4585913247287273,0.8306668339125811
1744927505118909000,5.541908935546875,1.0621866751324385,0.3773381058871746,0.7513952904075384
1744927505128867800,5.551867919921875,0.8773175989937037,0.43705169309377667,0.4217768209420144
1744927505138826000,5.561825927734375,0.7319809803634881,0.3820522749274969,0.1249485133842565
1744927505148785000,5.571784912109375,0.6102081196069717,0.21758827343583106,-0.019544585360214112
1744927505158743800,5.581743896484375,0.22497838368713854,0.1797363894253969,-0.2963881260422058
1744927505168702000,5.591701904296875,-0.13796229046992955,0.009837503403425216,-0.6216514507718384
1744927505178660900,5.601660888671875,-0.45474159049801527,-0.19926292767226694,-0.7398411192793398
1744927505188619800,5.611619873046875,-0.8054162919957191,-0.2702373290836811,-0.7131046496536583
1744927505198579000,5.621578857421875,-1.0056512795705348,-0.35034137789011,-0.6319299028757959
1744927505208536800,5.631536865234375,-0.9272574687480926,-0.44407238551080225,-0.5054247529003769
1744927505218495700,5.641495849609375,-0.907388985195756,-0.34626492223143573,-0.2583104156529531
1744927505228455000,5.651454833984375,-0.6647550447653978,-0.1914747580140829,0.015175558229442686
1744927505238413800,5.661413818359375,-0.28529220180921255,-0.07637772175967693,0.2713422581182793
1744927505248371700,5.671371826171875,0.004993643568828702,0.051606853118538853,0.4854038187326863
1744927505258331000,5.681330810546875,0.37406653687059876,0.13946984548866748,0.6618998014647514
1744927505268289800,5.691289794921875,0.6000947218716144,0.30417174738943575,0.7463135301638394
1744927505278248700,5.701248779296875,0.8503203595399856,0.4206248744279146,0.670140464130789
1744927505288206800,5.711206787109375,0.9076010935764759,0.4546364496231079,0.5463538523990661
1744927505298165800,5.721165771484375,0.8004490249771624,0.38096623325645923,0.37771680300645527
1744927505308124700,5.731124755859375,0.6383381624829023,0.21791209856271743,0.11147203242396936
1744927505318083800,5.741083740234375,0.3301454890143126,0.15435995610654354,-0.21392363171475007
1744927505328041700,5.751041748046875,-0.007295417705178261,0.0723182172358036,-0.4550205535698682
1744927505338001000,5.7610009765625,-0.27874438760094344,-0.07123685173988342,-0.6130773183677345
1744927505347959800,5.770959716796875,-0.5972234772842377,-0.2010691003113985,-0.684477763171494
1744927505357919000,5.7809189453125,-0.7598468924105167,-0.3390770565539598,-0.6389161815665662
1744927505367876900,5.790876953125,-0.7772195405591279,-0.32873218815028665,-0.4760026974525302
1744927505377835800,5.800835693359375,-0.7970430159259587,-0.19307634799182413,-0.32075605817195024
1744927505387795000,5.810794921875,-0.619229118995741,-0.20671207463443278,-0.16290575746530667
1744927505397752800,5.8207529296875,-0.3940945218335837,-0.2035778682619333,0.09488755724467336
1744927505407711700,5.830711669921875,-0.20580255857408045,-0.014120879811048507,0.37991665113829076
1744927505417671000,5.8406708984375,0.1405588828343898,0.09260288037359714,0.5131425242034718
1744927505427629800,5.8506298828125,0.40701201720423996,0.19320202019810676,0.6143630473293363
1744927505437588000,5.860587890625,0.5210065721094608,0.27869126917421816,0.7453500919591635
1744927505447547000,5.870546875,0.6462550730872899,0.2830067942857742,0.7398609930235892
1744927505457506000,5.880506103515625,0.6495827562052756,0.30202889014184475,0.44580187618453054
1744927505467465000,5.89046484375,0.6135819799542427,0.25287936704754826,0.12220809210231527
1744927505477422800,5.9004228515625,0.4405670077383518,0.25230127489864823,-0.07205583997257053
1744927505487383000,5.910383056640625,0.2345008297920227,0.18734978703856467,-0.31182416183874007
1744927505497342200,5.92034228515625,0.07464695244431495,0.016193009909987448,-0.5551576288405805
1744927505507301000,5.930301025390625,-0.25850122551731763,-0.08505261112451552,-0.622448446368426
1744927505517259000,5.940259033203125,-0.5282050322461873,-0.16277648679614065,-0.5223253996230661
1744927505527218200,5.95021826171875,-0.604461684909463,-0.27373393902778625,-0.46005310437697916
1744927505537177000,5.960177001953125,-0.8391074761301278,-0.2868278138786554,-0.44027445453256364
1744927505547136000,5.970135986328125,-0.8756360025823116,-0.31043840656876565,-0.18277829613825305
1744927505557094100,5.98009423828125,-0.6644114189594984,-0.2893336592197418,0.1864828862772323
1744927505567053000,5.990052978515625,-0.5012748666793108,-0.14003683172166348,0.2981387508355081
1744927505577012000,6.000011962890625,-0.16822715341746805,0.03196691762506962,0.3105024117156863
1744927505586971100,6.00997119140625,0.44283210312612353,0.14457272158563136,0.5360914015818387
1744927505596929000,6.019928955078125,0.7460609436422586,0.37774844025373455,0.7454916923869401
1744927505606888000,6.029887939453125,0.8379564794640988,0.5045873522281646,0.624168109767884
1744927505616847000,6.03984716796875,1.1473691231817007,0.4159580516606569,0.3329609482938424
1744927505626806300,6.04980615234375,1.0618857194244862,0.4678191718012094,0.21695647833831608
1744927505636764200,6.05976416015625,0.672841978174448,0.4661287344962358,0.13214414224307983
1744927505646723300,6.069723388671875,0.39041152247190475,0.0962210708707571,-0.12578432488758115
1744927505656682200,6.07968212890625,-0.006095467330887914,-0.12529811227321624,-0.5252078962568193
1744927505666641200,6.08964111328125,-0.39310507240481674,-0.04222118513584137,-0.6455138262659311
1744927505676599300,6.099599365234375,-0.4879845924735069,-0.09827040461599826,-0.510858687582612
1744927505686558200,6.10955810546875,-0.9500017999976873,-0.26955343847274776,-0.5733182855617255
1744927505696517000,6.11951708984375,-1.3428905262380837,-0.566881603577733,-0.6047265463907271
1744927505706475300,6.129475341796875,-1.1465092914819717,-0.6561041938632727,-0.30672910372205076
1744927505716434200,6.13943408203125,-0.9522819468241185,-0.2693020940601826,0.08472792748110368
1744927505726393300,6.149393310546875,-0.3951122475087642,-0.03135200059711933,0.3163075177978724
1744927505736352300,6.159352294921875,-0.0017021277427673339,0.029884850654006003,0.41010852191485464
1744927505746310100,6.16931005859375,0.2231552599132061,0.16287994717061519,0.5889582646988332
1744927505756269300,6.179269287109375,0.596367883368209,0.2448877837717533,0.7284498105626553
1744927505766228200,6.189228271484375,0.9671335520625114,0.3817974233835935,0.5980465937027707
1744927505776187100,6.199187255859375,1.0555565164029597,0.5932780275940894,0.3168123985800892
1744927505786145300,6.209145263671875,1.0022503850858657,0.4971212541311979,0.260541608771123
1744927505796104200,6.219104248046875,0.741137004308775,0.2938859156966209,0.2526655233674682
1744927505806063000,6.22906298828125,0.37107553836107254,0.17532558724582195,-0.02840376351708546
1744927505816022300,6.239022216796875,0.1446883838545531,0.0392307711482048,-0.4231404739780351
1744927505825980200,6.248980224609375,-0.016708412086218594,-0.04936228906214237,-0.593123275423795
1744927505835939000,6.25893896484375,-0.4735819731116295,-0.027830256211757658,-0.5419620471809059
1744927505845898200,6.268898193359375,-0.7325029584109782,-0.2348141335248947,-0.5551676387779414
1744927505855857200,6.278857177734375,-0.699854488262534,-0.442881129899621,-0.58756187843699
1744927505865815000,6.28881494140625,-0.7543710182826966,-0.2711556129723787,-0.43068413082323964
1744927505875774200,6.298774169921875,-0.6584281798314303,-0.13536182564795016,-0.08879819086100905
1744927505885733000,6.308733154296875,-0.5548625914167612,-0.10863573128581046,0.20390784913497045
1744927505895692000,6.318692138671875,-0.4110112429082393,-0.1681727928817272,0.33362456330172713
1744927505905650200,6.328650146484375,-0.05111527020931243,-0.14784195251464843,0.4703636686522513
1744927505915609000,6.338609130859375,0.18658399029783904,0.14571487735807895,0.6549740207895636
1744927505925568000,6.348568115234375,0.3686023531805724,0.3266729175329208,0.7451364492084831
1744927505935527200,6.358527099609375,0.5332241755824536,0.24864918213188647,0.5899870962899177
1744927505945485000,6.368485107421875,0.6255787072181701,0.18277239612042903,0.3740069156378507
1744927505955444200,6.3784443359375,0.6903839915405958,0.2847667896956205,0.22753078985000028
1744927505965403100,6.388403076171875,0.6282791983485222,0.3643921150743961,-0.028388986073061822
1744927505975361000,6.398361083984375,0.4383716165859252,0.28114450754523274,-0.3554859742369503
1744927505985320200,6.4083203125,0.2880207499902695,0.08697744170725345,-0.5810601318601518
1744927505995279000,6.418279052734375,-0.04426123959608376,0.043294367325305935,-0.6317695246823132
1744927506005238000,6.428238037109375,-0.28119302286207676,-0.04645838431417942,-0.6041701546169818
1744927506015196200,6.438196044921875,-0.46693369420357045,-0.20053134017288685,-0.5563366825573146
1744927506025155000,6.448155029296875,-0.7589221787810325,-0.23890929388403892,-0.4148580179968849
1744927506035114000,6.458114013671875,-0.7704846062809229,-0.3081558485895395,-0.10971563547700643
1744927506045073200,6.4680732421875,-0.657467371975258,-0.27626959498524667,0.17727173461122436
1744927506055031000,6.478031005859375,-0.4527713133383542,-0.1265372986793518,0.2664984165499918
1744927506064990000,6.487989990234375,-0.11536365130133926,-0.02704290522634983,0.42994091124050315
1744927506074949400,6.497949462890625,0.06585165157020091,0.08906593841910362,0.6374448669049888
1744927506084908300,6.507908203125,0.08916063096523284,0.1679945137053728,0.7200642595332115
1744927506094866000,6.517865966796875,0.30245091494619847,0.08771101667881011,0.5797270931581034
1744927506104825300,6.527825439453125,0.4858556906860321,0.15108371091485023,0.33005518038235604
1744927506114784300,6.5377841796875,0.5078046337742358,0.3021305969506502,0.1263068326580338
1744927506124743200,6.5477431640625,0.5800514662742614,0.31158699208199975,-0.01915671855378896
1744927506134701300,6.557701416015625,0.5042840584326536,0.23344927491247652,-0.20897130653699858
1744927506144660200,6.56766015625,0.2700060045458376,0.17176526441574097,-0.43570005928911265
1744927506154619100,6.577619140625,0.13510982364825905,0.07372633046805858,-0.5290828379940241
1744927506164578300,6.587578369140625,-0.061827291424944995,-0.024932196682691574,-0.49011747631635516
1744927506174536200,6.5975361328125,-0.21293021849691868,-0.06289221724271774,-0.4101135634161532
1744927506184495000,6.6074951171875,-0.29464813224077224,-0.07418868728280067,-0.42283962786793705
1744927506194454300,6.617454345703125,-0.44304779170341785,-0.07513093656897545,-0.27566302566053347
1744927506204413200,6.6274130859375,-0.49672852848656474,-0.18055121293962,-0.006640205199457704
1744927506214371300,6.637371337890625,-0.5569587599784136,-0.26881401828229423,0.23306685146614908
1744927506224330200,6.647330322265625,-0.49586511659026145,-0.20446458796858785,0.35310930823348463
1744927506234289200,6.6572890625,-0.24803024651594457,-0.06174772338271141,0.45294791201427576
1744927506244247300,6.667247314453125,-0.06764554924964905,0.09907704482376575,0.5225250503810123
1744927506254206200,6.677206298828125,0.079114964703843,0.10547229881882667,0.4997560961468145
1744927506264165000,6.6871650390625,0.2744586731057614,0.06488894401788711,0.3933324514199048
1744927506274124000,6.6971240234375,0.34746604164950545,0.14608020353913306,0.2459146791340783
1744927506284082200,6.707082275390625,0.46887649883441623,0.2750216407507658,0.09525527631221338
1744927506294041000,6.717041015625,0.5323661705136299,0.3040565965771675,-0.05996752543505281
1744927506304000300,6.727000244140625,0.4292934071172029,0.23741759402155874,-0.21898336278973146
1744927506313959200,6.736959228515625,0.2727805838257074,0.09451017529964446,-0.3452874555014074
1744927506323917000,6.7469169921875,0.1859113517332822,0.02621814484000206,-0.4116286806868389
1744927506333876200,6.756876220703125,-0.03628236967138946,0.05481412472724914,-0.44174474628083404
1744927506343835100,6.766835205078125,-0.2782587960410863,0.02759878554344177,-0.4103635195892304
1744927506353794000,6.7767939453125,-0.3313859905947,-0.1587707582861185,-0.2749948258090764
1744927506363752200,6.786752197265625,-0.4369849845331162,-0.22885142572820186,-0.07582255382863805
1744927506373711000,6.796711181640625,-0.46659744798652825,-0.142370827627182,0.043153077424783255
1744927506383670000,6.806669921875,-0.3307072145503014,-0.1086386538952589,0.19119616026841102
1744927506393629200,6.816629150390625,-0.26491408823430534,-0.036066169637441636,0.3403094478931278
1744927506403587000,6.826587158203125,-0.15968853071816264,-0.010046762239933013,0.4604004199773073
1744927506413546000,6.8365458984375,0.0160644150942564,-0.025837036567926405,0.4650802483566105
1744927506423505200,6.846505126953125,0.1673685638267547,0.0581534982830286,0.37235856390893457
1744927506433464000,6.856464111328125,0.22415661897547542,0.18387363536059856,0.3016368768832646
1744927506443422000,6.866421875,0.378333619730547,0.21836276493966578,0.21476015560412778
1744927506453381000,6.876381103515625,0.3965092548251152,0.20079145241379737,0.010850772099196911
1744927506463340000,6.886340087890625,0.29598785641193387,0.18997779745459556,-0.20651247867541386
1744927506473299200,6.89629931640625,0.32502873052246867,0.0895890855103731,-0.32024843744337556
1744927506483257000,6.906257080078125,0.18551263473927973,0.11554127289056777,-0.4068171887518838
1744927506493214700,6.916214599609375,-0.0167266783952713,0.11621698019504546,-0.4192482523124665
1744927506503174000,6.926173828125,-0.10429565625488757,-0.028680151039361952,-0.35755631423760204
1744927506513131800,6.9361318359375,-0.1861065089792013,-0.10651274778246879,-0.23136187417916954
1744927506523091000,6.946091064453125,-0.3554296409398317,-0.07198854689002036,-0.09169109929092228
1744927506533049900,6.9560498046875,-0.39523908875882624,-0.13889759855866432,0.05370870250230655
1744927506543008800,6.9660087890625,-0.36033370652906593,-0.16992811211645603,0.1444045436781831
1744927506552967000,6.975966796875,-0.34577677338831125,-0.06133914258182049,0.2538591353325173
1744927506562925800,6.98592578125,-0.15784487561285496,-0.01895838297009468,0.3911549612503499
1744927506572884700,6.995884765625,-0.04828026597909629,0.013516484177112579,0.4334718253130093
1744927506582844000,7.005843994140625,0.02826813617236912,0.04373977300524711,0.35485045281238853
1744927506592801800,7.0158017578125,0.12129245682843029,0.06046878948807716,0.2619292637372389
1744927506602760700,7.0257607421875,0.1903905429739505,0.13264321433901785,0.19237192604951558
1744927506612719900,7.035719970703125,0.29346454847939313,0.17462533002197742,0.019485786111373454
1744927506622678800,7.0456787109375,0.31115444588363167,0.17217092260718345,-0.16333088754219932
1744927506632636700,7.05563671875,0.26260705340094864,0.13233458678126334,-0.26950550767779347
1744927506642595800,7.065595947265625,0.2100976984847337,0.10202595775723457,-0.3026744397700764
1744927506652554800,7.0755546875,0.10802665947675705,0.0906786343127489,-0.30662045571580526
1744927506662513700,7.085513671875,0.06218143862485885,0.04398410315513611,-0.34294074624478815
1744927506672471800,7.095471923828125,0.0003184913646429777,0.03676759590506554,-0.27628744116919113
1744927506682430700,7.1054306640625,-0.10720540622174739,-0.002882277438044548,-0.14569403549944981
1744927506692389600,7.1153896484375,-0.1989460437428206,-0.06337386327981949,-0.013985800455603747
1744927506702348800,7.125348876953125,-0.2607031925410032,-0.0911450827807188,0.10398514726730063
1744927506712306700,7.135306640625,-0.29241752364449203,-0.07229425183832645,0.22236666681878267
1744927506722265600,7.145265625,-0.31336561912707983,-0.05707914704978466,0.35289077011197806
1744927506732224800,7.155224853515625,-0.24103761114962396,-0.10716682777702807,0.40405462870337067
1744927506742183700,7.16518359375,-0.19887721629031002,-0.06736673230826855,0.3424772569188848
1744927506752141800,7.175141845703125,-0.12811967249996958,-0.009238952988386154,0.27778197230957447
1744927506762100700,7.185100830078125,0.058511737136170264,0.053825113689899444,0.1936982610161416
1744927506772059600,7.1950595703125,0.12240874750725925,0.13731588232517242,0.04776179506294429
1744927506782018600,7.2050185546875,0.22763211306631564,0.15885960561335086,-0.10982810114184394
1744927506791976700,7.214976806640625,0.33114684807658196,0.14359014028906822,-0.22531702279066665
1744927506801935600,7.224935546875,0.28679449613094327,0.14899112254977226,-0.27361794796530153
1744927506811894500,7.23489453125,0.23399346479177474,0.13920622611641884,-0.3071716233251616
1744927506821852700,7.244852783203125,0.1786865150462836,0.12125088270902633,-0.29106501305699345
1744927506831811600,7.2548115234375,0.0620183570176363,0.07314414666593075,-0.23669680546633898
1744927506841770800,7.264770751953125,-0.09304127179086208,0.0066822542428970335,-0.12335439432691782
1744927506851729700,7.274729736328125,-0.16506481692902744,-0.08316343637704848,-0.006944120049476623
1744927506861687600,7.2846875,-0.2375414395969361,-0.07203297055363654,0.08381525134928525
1744927506871646700,7.294646728515625,-0.24970767820887266,-0.02248538805246353,0.18151888892799614
1744927506881605600,7.304605712890625,-0.24333003293573854,-0.05335983426570892,0.28400804375018923
1744927506891564800,7.314564697265625,-0.20023907922804354,-0.08444880001246928,0.3087661990402266
1744927506901522700,7.324522705078125,-0.14071714213602243,-0.06456336532533169,0.2701091361267492
1744927506911481900,7.33448193359375,-0.018892916518449782,0.0038011458486318585,0.1983104309867136
1744927506921440800,7.344440673828125,0.06547529253847896,0.10291092389822006,0.1424742880016565
1744927506931400000,7.35439990234375,0.08768361721523106,0.12699790192842483,0.0627727738478221
1744927506941357800,7.36435791015625,0.18466273991167545,0.0650941112011671,-0.04340844042534008
1744927506951316700,7.374316650390625,0.1907505353927612,0.08272621400356292,-0.1437496964986436
1744927506961276000,7.38427587890625,0.17979243046157062,0.12139525961577892,-0.17347941138986497
1744927506971234800,7.39423486328125,0.19793555152602493,0.12915946387648583,-0.21359430842883884
1744927506981192700,7.404192626953125,0.1572499053943902,0.13742168078720568,-0.24032206502510234
1744927506991151900,7.41415185546875,0.07923727590925991,0.06993804410099982,-0.19315156865250319
1744927507001110800,7.42411083984375,-0.0099683632414788,-0.015482231292128562,-0.11045374049320816
1744927507011069700,7.434069580078125,-0.13370762870013714,-0.01408113232254982,-0.016060889696609227
1744927507021027800,7.44402783203125,-0.2253156528174877,-0.025168343526124952,0.048240664621070024
1744927507030986800,7.45398681640625,-0.2682586494218558,-0.07342296360731125,0.12105565239787101
1744927507040945700,7.463945556640625,-0.2560007139384746,-0.09563596445918082,0.21586685647070405
1744927507050904800,7.47390478515625,-0.16844459556043148,-0.07538286550343036,0.23957458939235657
1744927507060862700,7.48386279296875,-0.14048223740160465,-0.003333528336882591,0.22385369050614534
1744927507070822000,7.49382177734375,-0.14179792311005293,0.031604514053463935,0.18284471243796868
1744927507080780800,7.50378076171875,-0.054180576064065095,-0.02204056689441204,0.1253447461602278
1744927507090739700,7.51373974609375,-0.022107859976962206,-0.002943652236461639,0.0474334581577219
1744927507100697900,7.52369775390625,0.034222003075480456,0.06807634188234805,-0.02519661977253854
1744927507110656800,7.53365673828125,0.22164543987214563,0.09858020121753215,-0.1243521001273766
1744927507120615700,7.54361572265625,0.2361865909218788,0.1765092440724373,-0.21591020242208614
1744927507130574600,7.55357470703125,0.20966515228636562,0.16893793203532695,-0.21049665294075384
1744927507140532700,7.56353271484375,0.28246370038501917,0.0749497347831726,-0.18698573949914424
1744927507150491600,7.57349169921875,0.16739420972466468,0.12886661840975283,-0.16432649271711705
1744927507160450800,7.583450927734375,0.08425590778887271,0.12349018606841564,-0.09951258669681846
1744927507170408700,7.59340869140625,0.053802317336201666,0.03037760260701179,0.010867522304598242
1744927507180367600,7.60336767578125,-0.10758877951614558,0.004223170652985573,0.12252484816759825
1744927507190326800,7.613326904296875,-0.14702413332574069,-0.05680851341485977,0.18054450920419765
1744927507200285700,7.62328564453125,-0.2129243732780218,-0.07331482705771923,0.20364344431143253
1744927507210243600,7.63324365234375,-0.2855347783934325,-0.05815525184869766,0.20271314119137823
1744927507220202800,7.64320263671875,-0.23984094871096312,-0.10105097524523735,0.19822726448159664
1744927507230161700,7.65316162109375,-0.20045644830577075,-0.08121054874360562,0.11017879600934684
1744927507240120600,7.66312060546875,-0.14851115701310336,-0.006565934386849403,0.012725900055002421
1744927507250078700,7.67307861328125,-0.021206965614482758,0.020189386069774627,-0.015930303853191434
1744927507260037600,7.68303759765625,0.07423720259964466,0.0719914694994688,-0.07689348926208912
1744927507269996500,7.69299658203125,0.12985044181533156,0.1117711067020893,-0.13583117845905943
1744927507279955700,7.702955810546875,0.18093531688638032,0.09789221895337104,-0.17865361742367966
1744927507289913600,7.71291357421875,0.22178864773511886,0.10485387465953826,-0.16246469916692002
1744927507299872500,7.72287255859375,0.20992643357105553,0.12430442506074904,-0.11056976808831095
1744927507309831700,7.732831787109375,0.14330840073823928,0.11885200487375258,-0.0810366352151148
1744927507319790800,7.742790771484375,0.11272037025094031,0.0761041655153036,-0.015210593010205775
1744927507329748700,7.752748779296875,0.04450673878975212,0.02678571559488773,0.04910953814378008
1744927507339708000,7.7627080078125,-0.04179908726625144,0.022737901508808136,0.12461791145671158
1744927507349666800,7.772666748046875,-0.07523607744388282,-0.0005862754553556442,0.174577015634533
1744927507359625700,7.782625732421875,-0.16113982550501824,-0.013388473883271216,0.18937614176701753
1744927507369583900,7.792583984375,-0.19812771309725938,-0.042245150533318516,0.1574960987078026
1744927507379542800,7.802542724609375,-0.21429675760976968,-0.0744663351804018,0.13311110584540292
1744927507389501700,7.812501708984375,-0.20352285013906657,-0.049915831291675566,0.10659063532426953
1744927507399460900,7.8224609375,-0.16237601623646913,-0.01559212140738964,0.03931598347993567
1744927507409418800,7.832418701171875,-0.07365969497263432,0.011245032113790512,-0.030981961708329616
1744927507419378000,7.8423779296875,-0.01186279868595302,0.050180619707703586,-0.08555343678612262
1744927507429336800,7.8523369140625,0.05801613563895225,0.05990881751775741,-0.13300852225376292
1744927507439295700,7.862295654296875,0.16595811250694095,0.07851648735404014,-0.1644209478012286
1744927507449254000,7.87225390625,0.19682773641459642,0.16182254707217217,-0.16980428480738774
1744927507459212800,7.882212890625,0.2006108351498842,0.15076690005064008,-0.1261133741788566
1744927507469171700,7.892171630859375,0.20738369028568265,0.09503449143469334,-0.06704940998740494
1744927507479129900,7.9021298828125,0.10759345569126308,0.08744798182845115,-0.0094718301624991
1744927507489089500,7.912089599609375,0.029459830174967644,0.04741407760381698,0.07725587456738575
1744927507499048400,7.92204833984375,-0.025713702449202538,0.015184125128388404,0.1471849499106407
1744927507509007400,7.93200732421875,-0.10483758111186325,-0.005318564674258232,0.17653204042613505
1744927507518965500,7.941965576171875,-0.15513853926360607,-0.024828736308217046,0.18170940653141587
1744927507528924400,7.95192431640625,-0.1747339780282229,-0.06865443403124809,0.16204839171729982
1744927507538883300,7.96188330078125,-0.20357319208681582,-0.060309215012192725,0.117656822006125
1744927507548842500,7.971842529296875,-0.17830423773042856,-0.0405161347836256,0.058291354117449366
1744927507558800400,7.98180029296875,-0.11499591396749019,-0.0038180969834327697,-0.002853087876178324
1744927507568759600,7.991759521484375,-0.07132562600187957,0.006978606840968132,-0.07885605803932993
1744927507578718500,8.001718505859374,-0.02113156229071319,0.0183475575953722,-0.12944595266766845
1744927507588677400,8.011677490234375,0.023125512586906552,0.04314063806831837,-0.1447363146495074
1744927507598635500,8.021635498046875,0.1102379788506776,0.07836626522839069,-0.1488939640519209
1744927507608594400,8.031594482421875,0.1236404812593013,0.10514145942926406,-0.1455705187176354
1744927507618553300,8.04155322265625,0.13967099408395586,0.10967442668378352,-0.06661174922250211
1744927507628512300,8.05151220703125,0.14579028068184852,0.06747311529219151,0.0009180281603708863
1744927507638470400,8.061470458984376,0.08933839868493378,0.07106850943565368,0.02795258568348363
1744927507648429300,8.07142919921875,0.05996851181574166,0.06867313873171806,0.09941486194338649
1744927507658388500,8.081388427734375,0.052670756023004646,0.04876315412521362,0.11850971250841394
1744927507668347600,8.09134765625,-0.026872078704088923,0.03275485313236713,0.1606797702452168
1744927507678305300,8.10130517578125,-0.09023023295812309,-0.008440496087074279,0.15539914469486102
1744927507688264400,8.111264404296875,-0.0953103857666254,-0.05331891773343086,0.15262003537034616
1744927507698223600,8.1212236328125,-0.14330430908501146,-0.0013379706054925918,0.1021814771125093
1744927507708182500,8.1311826171875,-0.1482528714030981,0.017920856615900992,0.05818226771978661
1744927507718140700,8.141140625,-0.08708031755983829,-0.024482699349522588,-0.0399466825989075
1744927507728099600,8.151099609375,-0.11426241206116974,-0.007469020706415176,-0.1126331668915227
1744927507738058500,8.16105859375,-0.06242167712152004,0.002402384966611862,-0.13324322605878114
1744927507748017700,8.171017578125,0.018808745366334916,0.033034254595637316,-0.14926579303899778
1744927507757975600,8.1809755859375,0.009690715343877672,0.0833762023448944,-0.14543253501905126
1744927507767934500,8.1909345703125,0.06376373938024044,0.05270049357414245,-0.10493863033354282
1744927507777893600,8.2008935546875,0.10298457365632056,0.05100187296271324,-0.06619622722417116
1744927507787852500,8.2108525390625,0.09759586635529995,0.08775660938620566,-0.01625411071376875
1744927507797810400,8.220810546875,0.12878653891086578,0.0791588769108057,0.07197724004471674
1744927507807769600,8.23076953125,0.13516944488100707,0.09712123458087443,0.11224347345419228
1744927507817728500,8.240728515625,0.0985123966783285,0.08933364944458007,0.1432494188263081
1744927507827687400,8.2506875,0.05014028769731521,0.03248480401933193,0.18713517617350442
1744927507837645600,8.2606455078125,-0.034818799924850465,0.012322890478372574,0.1640633117362857
1744927507847604500,8.2706044921875,-0.08039572522938251,-0.005856909334659576,0.11091651743305847
1744927507857563400,8.2805634765625,-0.1170955165952444,-0.0159206227093935,0.08529796418771148
1744927507867521500,8.290521484375,-0.15237959594428538,-0.019206220251321793,0.02956100726081058
1744927507877480400,8.30048046875,-0.16552322822101415,-0.03723755150437355,-0.042415867457725104
1744927507887439600,8.310439697265625,-0.12889241043813526,-0.0384685546040535,-0.10513879254814237
1744927507897398500,8.3203984375,-0.10127068241052328,0.003262801188230514,-0.14003054811134932
1744927507907356400,8.3303564453125,-0.06972345150224864,0.024923428854346275,-0.1364371449955739
1744927507917315600,8.340315673828124,-0.025678046613931655,0.03742635207474231,-0.1363124774362892
1744927507927274500,8.3502744140625,0.03597439970076084,0.053636897641420364,-0.13047339601926505
1744927507937233400,8.3602333984375,0.1065337905704975,0.07309680039286613,-0.07409348328001797
1744927507947191600,8.370191650390625,0.11324994708299636,0.09773439804315566,-0.012849745630379765
1744927507957150500,8.380150390625,0.131215738819167,0.10331892017722129,0.06461399953402579
1744927507967109400,8.390109375,0.13624394224472344,0.07326864982843398,0.12410903035281225
1744927507977068500,8.400068603515624,0.09452595739066601,0.0641442631304264,0.19060303494716063
1744927507987026400,8.4100263671875,0.037273864926770324,0.06117956810593605,0.19412540038703008
1744927507996985300,8.4199853515625,-0.013328779585286974,0.02979600332677364,0.19080049374802038
1744927508006944500,8.429944580078125,-0.07487652341648936,0.0027940146327018736,0.14847973896153271
1744927508016903400,8.4399033203125,-0.13201821430847047,-0.027573651102185247,0.08575032933140173
1744927508026861300,8.449861328125,-0.13508768488168715,-0.047266778087615965,0.013380053114797919
1744927508036820500,8.459820556640626,-0.1540898339282721,-0.02681201907992363,-0.06203119823290035
1744927508046779400,8.469779296875,-0.1525788448434323,0.000692073917388916,-0.13357119763782246
1744927508056738300,8.47973828125,-0.09625964931547641,-0.012649053692817687,-0.1654921024303883
1744927508066696400,8.489696533203125,-0.05907886949963867,-0.0019090484917163848,-0.16392138251494615
1744927508076655400,8.4996552734375,-0.01836976942718029,0.019743980389833448,-0.1742556016604416
1744927508086614300,8.5096142578125,0.05562485658824443,0.06110474930405616,-0.13133258839817716
1744927508096573700,8.51957373046875,0.11723105260841547,0.10435001679062843,-0.05458959525637328
1744927508106531300,8.52953125,0.14283720302991568,0.09890811799764633,0.011763046372216195
1744927508116490500,8.539490478515624,0.1431978530358523,0.10240765055119991,0.08598552632676437
1744927508126449700,8.54944970703125,0.14739713135659693,0.08719371480643749,0.12806646274169906
1744927508136408600,8.55940869140625,0.12073467681519687,0.05834463694095611,0.1864888776266016
1744927508146366700,8.56936669921875,0.0533826306194067,0.07018471233844757,0.22733429916352033
1744927508156325600,8.57932568359375,0.00020049100816249847,0.02040799725651741,0.1888614702431485
1744927508166284500,8.589284423828126,-0.08032792069017887,-0.02438508419394493,0.15536553468620404
1744927508176242700,8.59924267578125,-0.16532032606005667,-0.024817630392313002,0.08943623303622007
1744927508186201600,8.60920166015625,-0.16762494974061845,-0.03806523450016975,-0.012321301309484988
1744927508196160500,8.619160400390625,-0.18802425223402677,-0.04109364241063595,-0.09787344118766486
1744927508206119400,8.629119384765625,-0.16216500383429228,-0.028948446586728096,-0.16502600102229043
1744927508216077600,8.63907763671875,-0.08824410064220428,-0.0022679449319839475,-0.17652606734307483
1744927508226036500,8.649036376953125,-0.013841478347778319,0.04711187978684902,-0.17688485418548808
1744927508235995600,8.65899560546875,0.05647650498151779,0.0943254663825035,-0.16774139746082944
1744927508245954600,8.66895458984375,0.08313545239157974,0.06637304509580134,-0.09921948550175874
1744927508255912400,8.678912353515624,0.15081716893315314,0.05273088871240616,-0.014247465332783758
1744927508265871600,8.68887158203125,0.17635558788068592,0.10682955864667892,0.05126695363968611
1744927508275830500,8.69883056640625,0.14239070137143134,0.1189730009049177,0.11408281771056353
1744927508285789400,8.70878955078125,0.10196122195795178,0.07645663221478462,0.17990184565279632
1744927508295747600,8.71874755859375,0.036949382212758064,0.010332008922100067,0.2116029336822219
1744927508305706500,8.72870654296875,-0.038405426239967344,-0.0006523264288902282,0.21738920719977467
1744927508315665400,8.73866552734375,-0.05286883587837219,0.002179097604751587,0.17321334433220326
1744927508325624600,8.74862451171875,-0.09610416649281978,-0.0038028994143009184,0.10201711686365306
1744927508335582500,8.75858251953125,-0.16073891655392944,-0.02500584644079208,0.020184655095729975
1744927508345541400,8.768541259765625,-0.15387129580676553,-0.05331891773343086,-0.01723470098264515
1744927508355500500,8.77850048828125,-0.11464110918045044,-0.05435001434683799,-0.12920931263389066
1744927508365459500,8.78845947265625,-0.08734101432263851,0.027671850779652594,-0.207909559057001
1744927508375417300,8.798417236328126,0.0017353724252432584,0.059055415558815,-0.193869598995056
1744927508385376500,8.80837646484375,0.06263437002412975,0.05638356600105762,-0.17975491146277636
1744927508395335400,8.81833544921875,0.06423194141387939,0.0685235011279583,-0.16251347021209075
1744927508405294300,8.82829443359375,0.15171557907760141,0.07462649417817592,-0.0989207582835108
1744927508415252500,8.83825244140625,0.1923976450126618,0.1098018524557352,0.007710464779473841
1744927508425211400,8.84821142578125,0.13256832247190176,0.1425233878403902,0.09927106955852359
1744927508435170300,8.85817041015625,0.06523264288902282,0.039241877064108845,0.17504437741795553
1744927508445129500,8.86812939453125,0.003210851805284619,-0.02044716022312641,0.21923136446774005
1744927508455087400,8.87808740234375,-0.03307166399657726,0.032013679376244546,0.25240822413815184
1744927508465046500,8.888046630859375,-0.06967449779398739,0.026588147196173667,0.18294296691436318
1744927508475005400,8.89800537109375,-0.1409639565039426,-0.014130816683173179,0.12580160481594502
1744927508484964400,8.90796435546875,-0.1814490385621786,-0.052497664478421205,0.057592284203693264
1744927508494922500,8.917922607421875,-0.13272782388255,-0.06893500453829765,-0.0031117022797465324
1744927508504881400,8.92788134765625,-0.11223872421383857,-0.013373276314139365,-0.1054927205523476
1744927508514840300,8.93784033203125,-0.0888876592427492,0.02971592382788658,-0.18823997734393924
1744927508524798500,8.947798583984374,-0.03557056814022362,0.016352584385871886,-0.1898141313254833
1744927508534757400,8.95775732421875,-0.007584756040573119,0.030382863304018973,-0.1896793442309834
1744927508544716300,8.96771630859375,0.07537870078496635,0.05710252792537212,-0.18467444861577823
1744927508554675500,8.977675537109375,0.12914258580692112,0.08087795578837394,-0.1622970875150524
1744927508564633300,8.98763330078125,0.1228121406763792,0.11399462797045708,-0.0448441175179556
1744927508574592300,8.99759228515625,0.1389502055287361,0.09576631284058093,0.10576116223018615
1744927508584551400,9.007551513671874,0.10747603985667228,0.0734989514529705,0.13807736821696162
1744927508594510300,9.01751025390625,0.07954941059835255,0.04344225136339664,0.18889802112756296
1744927508604468200,9.02746826171875,0.0747802234351635,0.040323827081918714,0.2513928913494572
1744927508614427400,9.037427490234375,0.019462240839004514,0.051615036424994466,0.28889302104646336
1744927508624386300,9.04738623046875,-0.005351809356734156,0.029592005187273025,0.2217011886473745
1744927508634345200,9.05734521484375,-0.0402852486371994,0.0017377835780382155,0.1184790981744416
1744927508644303400,9.067303466796876,-0.08296703702211379,0.01594458810687065,0.049597814851067956
1744927508654262300,9.07726220703125,-0.09004793519377707,-0.016665303596854208,-0.031944924988970155
1744927508664221200,9.08722119140625,-0.11645539206080138,-0.012276128727197647,-0.13797082083625717
1744927508674180600,9.0971806640625,-0.09706395143568515,-0.005485737934708595,-0.23871179855056104
1744927508684138200,9.10713818359375,-0.09913732364363968,0.006067337214946746,-0.24707016931213438
1744927508694097400,9.117097412109375,-0.09126900142133236,0.020296353575587272,-0.20780103891491888
1744927508704056600,9.127056640625,-0.0362326853107661,-0.01707739152908325,-0.17185237644361331
1744927508714015500,9.137015380859374,0.027979236228391526,0.016918986096978186,-0.14156285397885365
1744927508723973600,9.1469736328125,0.0596960515499115,0.0939595556795597,-0.04998809281028807
1744927508733932500,9.1569326171875,0.10192366642653941,0.08072831818461418,0.09410062638437375
1744927508743891500,9.166891357421875,0.10577391211390495,0.05040858324468136,0.15425220314944163
1744927508753850400,9.176850341796875,0.07379581550769508,0.052720367318391796,0.17192686645193025
1744927508763808500,9.18680859375,0.12108137136101722,0.04112579111456871,0.24696663587242362
1744927508773767400,9.196767333984376,0.06999708081185817,0.0809931066006422,0.26156200132742524
1744927508783726300,9.206726318359374,-0.011907879936695098,0.0494873767465353,0.19656906721210107
1744927508793685500,9.216685546875,-0.03408179088719189,-0.022380174112319944,0.10762147620934992
1744927508803643400,9.226643310546875,-0.08487265144772826,-0.020125088661909103,0.04575160601800307
1744927508813602600,9.2366025390625,-0.09925773515291511,0.005232055434584618,-0.029303890694584694
1744927508823561500,9.2465615234375,-0.09763210671246052,0.016505729120969773,-0.13784816257096827
1744927508833520400,9.256520263671876,-0.11207798069417475,-0.02340659455060959,-0.21031450130688026
1744927508843478500,9.266478515625,-0.08310315755717455,-0.02587561501264572,-0.22832924675131216
1744927508853437400,9.2764375,-0.049600700927898284,0.009527122280001639,-0.19235992508446798
1744927508863396400,9.286396240234374,-0.009929784796759485,0.03263034996986389,-0.17032091082632542
1744927508873354500,9.2963544921875,0.014036197202280163,0.04595335740149021,-0.12343500354876741
1744927508883313400,9.3063134765625,0.009284618761017919,0.04714285944700241,-0.022793321490474045
1744927508893272300,9.316272216796875,0.0685411098498851,0.04622925173342227,0.10262173169329762
1744927508903231500,9.3262314453125,0.11524316672682762,0.07733809122443198,0.13652942638890816
1744927508913189400,9.336189453125,0.130432479486987,0.07562427304387093,0.19163150121206415
1744927508923148300,9.346148193359374,0.12333696826808153,0.07970949653089046,0.24053888611355795
1744927508933107500,9.356107421875,0.04068922632820904,0.06539221736490726,0.269573275684379
1744927508943066400,9.36606640625,0.010541267758607864,0.007462006443738937,0.19272684043440966
1744927508953024500,9.3760244140625,-0.014911737927794455,-0.012734393888711929,0.09084809086183085
1744927508962983400,9.3859833984375,-0.045921793219447136,0.0536526797324419,0.017335640606470405
1744927508972942300,9.3959423828125,-0.08921857169754803,0.04105681753158569,-0.04842546486975625
1744927508982901200,9.4059013671875,-0.09048230802305042,-0.028806407767534254,-0.1429761183102615
1744927508992859400,9.415859375,-0.11734985668249427,-0.025762802287936207,-0.2059987387333065
1744927509002818300,9.425818359375,-0.13445230958759785,0.004350596424937248,-0.21843365648509933
1744927509012777200,9.435777099609375,-0.11016476748399436,-0.0004155950635671615,-0.18495191385028883
1744927509022736400,9.445736328125,-0.0752811586946249,-0.013103227201104163,-0.17131268007634207
1744927509032694300,9.4556943359375,-0.05194938294589519,0.009701309803128243,-0.12181891012163833
1744927509042653400,9.4656533203125,0.06786700998060405,0.05000175600945949,-0.02518580611757934
1744927509052612400,9.4756123046875,0.11153313322775066,0.09086158966422081,0.08034958453271537
1744927509062571300,9.4855712890625,0.07275712010972202,0.09307166692912577,0.1423850022830069
1744927509072529400,9.495529296875,0.08909465305693447,0.02837444609105587,0.22307165501667187
1744927509082488300,9.50548828125,0.07432378490455448,0.04058043219149112,0.25648287143222986
1744927509092447500,9.515447509765625,0.07597272115536034,0.052073886108398436,0.24896129855467006
1744927509102406400,9.525406494140626,0.07729081801660359,0.053824529168009755,0.19039489035550503
1744927509112364300,9.5353642578125,0.02825118503756821,0.060040334942936896,0.08544698073696344
1744927509122323500,9.545323486328124,-0.004838672202825546,0.02753039648234844,0.03908973697600886
1744927509132282400,9.555282470703125,-0.006135726276040077,-0.0006049801558256149,-0.04686442609811201
1744927509142241500,9.565241455078125,-0.06593582272231578,0.02481646134853363,-0.15211354715293274
1744927509152199400,9.575199462890625,-0.11943309269733726,0.01625730731785297,-0.20420257603153585
1744927509162158600,9.58515869140625,-0.17937756605036556,-0.050213937455415726,-0.2072341257471591
1744927509172117500,9.595117431640626,-0.2511971861142665,-0.06167348910272121,-0.21519427270507438
1744927509182076400,9.605076416015624,-0.14941957709491252,-0.08176058384180068,-0.1667274163790047
1744927509192034600,9.61503466796875,-0.08207973279356956,-0.001726093140244484,-0.10140890357112511
1744927509201993500,9.624993408203125,-0.01864507923722267,0.0914589710354805,-0.024271906143054366
1744927509211952400,9.634952392578125,0.07436046365313231,0.06206979494392872,0.09601869843276217
1744927509221910500,9.64491064453125,0.09241174171566963,0.04630640862286091,0.15813187586069105
1744927509231869400,9.654869384765625,0.16525127941183745,0.06598492256104946,0.20255466269403694
1744927509241828400,9.664828369140626,0.2485954061180353,0.12553835076987743,0.21561492753624914
1744927509251787500,9.67478759765625,0.2090904211383313,0.1703337703078985,0.2328752744168043
1744927509261745400,9.684745361328124,0.19016024134941398,0.10839607731103897,0.19552918450403958
1744927509271704300,9.694704345703125,0.12429974888563156,0.03956277958154678,0.09512370408810675
1744927509281663500,9.70466357421875,0.01732690931074321,0.024900632500648497,0.021279628991894423
1744927509291622400,9.714622314453125,-0.04081007622890174,0.0050134442478418344,-0.05769163465863093
1744927509301580500,9.72458056640625,-0.16005729096531868,-0.004088730618357658,-0.11863383207842707
1744927509311539500,9.73453955078125,-0.25429982830472286,-0.0609983663201332,-0.19242022217065094
1744927509321498400,9.744498291015624,-0.25290209033600985,-0.13921090229153632,-0.25426713161151854
1744927509331457300,9.754457275390624,-0.25545177481882275,-0.07760229511857032,-0.22722656447272746
1744927509341415400,9.76441552734375,-0.19324929340593516,-0.016989128723740577,-0.16071133442725985
1744927509351374300,9.774374267578125,-0.12463928303830325,0.0016045125871896743,-0.09818690931731834
1744927509361333200,9.784333251953125,-0.05099135156869888,0.01973988873660564,-0.023847397120669484
1744927509371292400,9.79429248046875,0.0417144046574831,0.0321855288118124,0.05881822753576561
1744927509381250300,9.804250244140626,0.1303279231339693,0.07720598927736282,0.14994489787695928
1744927509391209500,9.81420947265625,0.17545125945210455,0.1315793844997883,0.2198525833723135
1744927509401168400,9.82416845703125,0.19620003297030925,0.13114216212630272,0.22595205102488397
1744927509411127300,9.834127197265625,0.21229199365861712,0.10687105970084666,0.20978494274113327
1744927509421085400,9.84408544921875,0.23356742139942943,0.07745148847103119,0.16280028779683633
1744927509431044400,9.85404443359375,0.13907069010324774,0.11177052218019962,0.14521575046321375
1744927509441003300,9.864003173828126,0.10254442867338656,0.07499298940300941,0.08755595398126169
1744927509450962400,9.87396240234375,0.035437735540792346,0.015141455030441283,-0.05446892801877111
1744927509460920300,9.88392041015625,-0.06567052284963429,0.02175298212468624,-0.1512294029958546
1744927509470879200,9.893879150390624,-0.028311317726969716,0.006528524985909462,-0.17774269485753028
1744927509480838400,9.90383837890625,-0.06864800429046154,-0.008860767325758934,-0.19855792120806873
1744927509490797000,9.913797119140625,-0.17790099069178103,0.011574702459573745,-0.2343871950834058
1744927509500755000,9.9237548828125,-0.16741342588178812,-0.04414367763102054,-0.18130394926937296
1744927509510714000,9.933714111328126,-0.17782266475856304,-0.04867313775420189,-0.06686804380482063
1744927509520673000,9.943673095703126,-0.21469905480034648,-0.028750293666124343,-0.011177629433386026
1744927509530632000,9.9536318359375,-0.17521270145587622,-0.06260463247299194,0.04268810852784663
1744927509540590000,9.963590087890625,-0.08604505622796714,-0.03792845637798309,0.14356641235360876
1744927509550549000,9.973549072265625,-0.00862688550464809,0.06083411566913127,0.2165279507279396
1744927509560508000,9.9835078125,0.03816350724287331,0.08553601072728634,0.216496203882806
1744927509570467000,9.993467041015625,0.14051204801797865,0.0331266090542078,0.18058264925749973
1744927509580425000,10.003425048828126,0.1643903517335653,0.0581926612496376,0.15459473297679796
1744927509590384000,10.013384033203126,0.1824123306363821,0.12900631914138794,0.12626197060300037
1744927509600343300,10.02334326171875,0.19286774674244223,0.13418810569345951,0.045061870188172905
1744927509610302200,10.03330224609375,0.12856617415845392,0.10846212828457355,-0.05956846138117835
1744927509620260000,10.043260009765625,0.07605974185168743,0.027640871119499207,-0.12935275795888154
1744927509630219300,10.05321923828125,0.021714476745203135,0.027790508723258972,-0.13047419973686336
1744927509640178200,10.06317822265625,-0.05073942263424396,0.047858898761868475,-0.14550972844110802
1744927509650137000,10.07313720703125,-0.08500643389523029,-0.007466098096966743,-0.18379381159003824
1744927509660095200,10.08309521484375,-0.114211558656767,-0.03225800952613354,-0.13841480174409224
1744927509670054100,10.09305419921875,-0.18234050750918684,-0.024832243439555167,-0.072739438322559
1744927509680013000,10.103012939453125,-0.15536474923491478,-0.040053193446993825,-0.0040755423432216045
1744927509689971200,10.11297119140625,-0.12588665275089442,-0.04161620498001575,0.06184853514237329
1744927509699930000,10.12293017578125,-0.19026720885522663,-0.005130933147668838,0.10915045760860666
1744927509709889300,10.13288916015625,-0.11276135984845459,-0.056870472735166544,0.21101647556377573
1744927509719848200,10.14284814453125,-0.031951720055937764,-0.004873158994317055,0.21323497359715402
1744927509729806000,10.15280615234375,0.06965045933127403,0.08214169211387634,0.132663709137775
1744927509739765200,10.16276513671875,0.20518186939246952,0.13149229073822497,0.09940213032597675
1744927509749724200,10.17272412109375,0.23512049606032667,0.16621406002938746,0.11372335501471534
1744927509759683000,10.18268310546875,0.1901718587219715,0.12368716994524001,0.03583689092621207
1744927509769641200,10.19264111328125,0.24857092926390467,0.051934769898653026,-0.084480930450093
1744927509779600100,10.20260009765625,0.18563721096701918,0.11219605411589145,-0.14381773849986493
1744927509789559000,10.21255908203125,0.08248020335324108,0.15233400323688984,-0.12006802960000931
1744927509799518200,10.222518310546874,0.019502061392739415,0.034274025523662564,-0.12596260406393556
1744927509809476000,10.23247607421875,-0.16000227284245191,-0.05274725532531738,-0.15577813407508656
1744927509819435000,10.24243505859375,-0.2325613130968064,-0.10791443127393723,-0.1139982081670314
1744927509829394200,10.252394287109375,-0.24236016499027607,-0.08083996186554432,-0.050439654236380006
1744927509839353000,10.26235302734375,-0.2934140604011714,-0.011790975558757782,0.005386898936424404
1744927509849311200,10.272311279296876,-0.259099191410467,-0.06010813948214054,0.05312776080919429
1744927509859270100,10.282270263671874,-0.19008710304796694,-0.09744447518587111,0.08213149951342492
1744927509869229000,10.29222900390625,-0.16129647737145422,-0.05810089131295681,0.13969632945461197
1744927509879188000,10.30218798828125,-0.060897755489870906,0.012717442753911018,0.14644929257985204
1744927509889146000,10.31214599609375,0.12232822961695491,0.07043488770723343,0.10560975279444829
1744927509899105000,10.32210498046875,0.22691724279522896,0.1413765558928251,0.07903475734079256
1744927509909064000,10.33206396484375,0.27891170699186624,0.17779051605463028,0.10005637471731751
1744927509919023000,10.342023193359376,0.32688575656600294,0.15785656605064868,0.05899226892841979
1744927509928981000,10.35198095703125,0.3531138382781297,0.13049684996008873,-0.014458185474015771
1744927509938940200,10.361940185546874,0.31335633984208106,0.1734925265997648,-0.06027039910545572
1744927509948899000,10.371899169921875,0.25003566805422306,0.16983517313599586,-0.03671531772855669
1744927509958858000,10.38185791015625,0.1315660135615617,0.09908873526155948,-0.04531447497606277
1744927509968816000,10.391816162109375,-0.051719592778012156,0.012950082466006279,-0.07851986662121489
1744927509978775000,10.401775146484376,-0.21744455411620436,-0.08657061447203158,-0.048051443925593046
1744927509988734000,10.41173388671875,-0.37148295011818405,-0.12130524324476719,-0.02233280957294628
1744927509998693000,10.421693115234374,-0.46467860875315964,-0.13145546585917472,-0.007197418957110494
1744927510008651000,10.431651123046874,-0.4315180243641138,-0.16959668820500373,-0.039675939366128295
1744927510018610000,10.44160986328125,-0.38818858572542664,-0.14327449846863746,-0.035558950767666096
1744927510028569300,10.4515693359375,-0.2895178566802293,-0.10219722267091273,0.028736648733261972
1744927510038528300,10.4615283203125,-0.09700900637805461,-0.013333528825640678,0.0672671809239313
1744927510048486000,10.47148583984375,0.07322649118714034,0.07592763990461826,0.04780154255144298
1744927510058445300,10.4814453125,0.25915011788010595,0.14785948817133904,0.04342162870047614
1744927510068404200,10.491404296875,0.3812946614932269,0.19910510676205156,0.06793328014984726
1744927510078363100,10.501363037109375,0.39627252345979214,0.2150380044311285,0.10240080068530515
1744927510088321300,10.5113212890625,0.3706441612064838,0.16728607317507266,0.07621692344108597
1744927510098280200,10.5212802734375,0.2807277434378862,0.12735387575924395,0.04912696420261636
1744927510108239000,10.531239013671875,0.13139007247276605,0.10890811848640441,0.022041133149992672
1744927510118198300,10.5411982421875,0.05459558660574257,0.05549509272873401,0.0035743696217425164
1744927510128156200,10.55115625,-0.008711714243888854,-0.029302082329988478,-0.05281725182160735
1744927510138115000,10.561114990234374,-0.1409071117501706,-0.01990998460650444,-0.07494043723186478
1744927510148074200,10.57107421875,-0.21313122096173465,-0.03723287532925606,-0.08569092729436233
1744927510158032100,10.5810322265625,-0.25982933231592176,-0.0776730222672224,-0.06294458675077184
1744927510167991000,10.590990966796875,-0.30934542370028795,-0.08883329870700836,-0.046436884868424386
1744927510177950200,10.6009501953125,-0.2828109794527292,-0.10276362438201904,-0.06763913777517154
1744927510187909000,10.6109091796875,-0.20999007339179515,-0.06399462552666664,0.01198971300125122
1744927510197867300,10.6208671875,-0.1709311516791582,-0.01559913567006588,0.07421168456589802
1744927510207826200,10.630826171875,-0.11634900907687842,-0.016245032358169556,0.08773819694668054
1744927510217785000,10.64078515625,-0.050501522225141524,-0.05051905788183212,0.04394755227072164
1744927510227744000,10.650743896484375,0.06163790633268654,0.023075170639157296,0.058192588184401386
1744927510237702100,10.6607021484375,0.1928572253484279,0.15538754558861254,0.10242120415251701
1744927510247661000,10.6706611328125,0.2898200544971973,0.21290333048999308,0.06031909708539024
1744927510257620200,10.6806201171875,0.34916999602317805,0.17096563847064972,-0.001915423433575779
1744927510267579100,10.6905791015625,0.3634739042509347,0.1313292091310024,-0.018896259253006427
1744927510277537000,10.700537109375,0.30500469108223915,0.1788257043212652,0.013187836744636297
1744927510287496200,10.71049609375,0.21965981901288031,0.15517653318643568,0.008488755675591528
1744927510297455000,10.720455078125,0.08722462140135466,0.07296586748957634,-0.06591043255273252
1744927510307414000,10.7304140625,-0.07051679383702576,-0.00192015440762043,-0.06142397132106125
1744927510317372200,10.7403720703125,-0.20793905914612112,-0.0704103377878666,0.015851941387355326
1744927510327331000,10.7503310546875,-0.2750526934761554,-0.10807868192493915,0.01659908822653815
1744927510337290000,10.7602900390625,-0.38669337873160836,-0.12467092028558253,-0.04585048154890537
1744927510347249200,10.770249267578125,-0.4084994792830199,-0.11182546723783016,-0.03987831180412322
1744927510357207000,10.78020703125,-0.32569208980202674,-0.12042203066945076,0.038244627921376374
1744927510367166000,10.790166015625,-0.2698269947171211,-0.09328794002830981,0.034038298805337396
1744927510377125000,10.800125,-0.14109072468876838,-0.021367197677493094,-0.028774807052873073
1744927510387084000,10.810083984375,0.04406652074158191,0.04360708653628826,-0.02260481318105012
1744927510397042000,10.8200419921875,0.18142916481792926,0.1436433317810297,0.05426964258700609
1744927510407001000,10.8300009765625,0.2694002206724137,0.19047405653893945,0.06396740872617811
1744927510416960000,10.8399599609375,0.3769962336469441,0.1738584373027086,0.02907020980287343
1744927510426919200,10.849919189453125,0.396934786760807,0.17640052300095557,0.008127429816219955
1744927510436877000,10.859876953125,0.33022337655611333,0.19304945998489856,0.0344906091501005
1744927510446836000,10.8698359375,0.28844284785985946,0.16757833411991596,0.07340310812937095
1744927510456795100,10.879795166015626,0.1667821422409266,0.10119769023954868,0.009030771864112466
1744927510466754300,10.88975439453125,-0.0256243436653167,0.026153262910246847,-0.026150760425906628
1744927510476712200,10.899712158203124,-0.19648586417436598,-0.05883154367506504,0.012814345523435623
1744927510486671000,10.909671142578125,-0.31999241685569285,-0.12958441129028797,0.029007337167114018
1744927510496630000,10.919630126953125,-0.4111018438011408,-0.167110132086277,-0.02769713135138154
1744927510506589000,10.9295888671875,-0.46497138115465636,-0.14346271451711654,-0.09767097741812467
1744927510516547000,10.939547119140625,-0.3971919763922691,-0.13616495872437953,-0.03914130276646465
1744927510526506000,10.949506103515626,-0.2641507026463747,-0.1013490814089775,-0.013681410681549459
1744927510536465000,10.95946484375,-0.16160861206054686,0.0068231240183115,-0.05992076368387788
1744927510546423800,10.969423828125,0.01047514371983707,0.05087853884398937,-0.06246743422569707
1744927510556382000,10.9793818359375,0.1948462802737951,0.09062894995212555,0.021972123034391552
1744927510566340900,10.9893408203125,0.27539040099792184,0.16951427061855792,0.09579853460974991
1744927510576300000,10.999300048828125,0.4729349073797464,0.20321955634355543,0.0429545409116894
1744927510586259000,11.009259033203126,0.5871347755987196,0.27127134830653665,0.022393800778873263
1744927510596216800,11.019216796875,0.5132482130676508,0.2945277207314968,0.09068336528679355
1744927510606176000,11.029176025390624,0.30952362981140613,0.17761983566284179,0.1001893169146031
1744927510616135000,11.039135009765625,0.10072371605224907,0.024492051699757576,0.022807021222263572
1744927510626094000,11.049093994140625,-0.17923304301314055,-0.08125847953855991,0.02837236373182386
1744927510636052000,11.059052001953125,-0.3937070568859577,-0.1452460908025503,0.05713553514583036
1744927510646011000,11.069010986328125,-0.5063794232767075,-0.14923136104643345,0.024237474150490015
1744927510655970000,11.078969970703126,-0.5871773726314305,-0.18107611359655856,-0.09753197080623358
1744927510665929000,11.088928955078124,-0.49955812588930126,-0.2532616443634033,-0.1830316863774322
1744927510675886800,11.098886962890624,-0.3661884239066392,-0.11629296804070471,-0.14790027683945373
1744927510685846000,11.108845947265625,-0.14871873534917832,0.06944529214799404,-0.04914150418462231
1744927510695805200,11.11880517578125,0.06366437065899372,0.07612287021577357,-0.0793036374100484
1744927510705764000,11.12876416015625,0.18721943865716456,0.09357260218858718,-0.0864616194059141
1744927510715722000,11.138721923828125,0.30710012899152933,0.14637246448397637,0.010416107008978723
1744927510725681200,11.14868115234375,0.3840612766623497,0.2255342640042305,0.0965808806264773
1744927510735640000,11.15864013671875,0.362736164560914,0.22151333792507646,0.10007946333196013
1744927510745599000,11.168598876953125,0.34603871226012706,0.14689210444390774,0.12650712273679673
1744927510755557000,11.17855712890625,0.2802764925390482,0.11766484091579914,0.20887204741360618
1744927510765516000,11.18851611328125,0.17712766823172568,0.11436579937040806,0.1906009525879286
1744927510775475000,11.198474853515625,0.07482055544555187,0.0780389329701662,0.0799251851081848
1744927510785434000,11.20843408203125,-0.07935761435329913,0.0005617255359888076,-0.0012217055483721196
1744927510795392000,11.21839208984375,-0.2519276923459023,-0.06053776307106018,0.0023737616603262722
1744927510805351000,11.228350830078124,-0.39174766644649206,-0.1353945588737726,0.013843560707010328
1744927510815310000,11.23831005859375,-0.46023726530484854,-0.18329788129925728,-0.12162651108838617
1744927510825269000,11.24826904296875,-0.39870764165222644,-0.16869827806055546,-0.22889970358302816
1744927510835227100,11.25822705078125,-0.30935587202906606,-0.06785130095481873,-0.18948605014858766
1744927510845186000,11.26818603515625,-0.18380473484285176,0.01265372986793518,-0.09512428860999643
1744927510855145000,11.27814501953125,-0.04912153910882771,0.024786650732159615,-0.07446836274070665
1744927510865104000,11.288103759765624,0.1280015260130167,0.020564064601063727,-0.08410168534154072
1744927510875062000,11.29806201171875,0.2702717428099364,0.13189385727643965,0.01756006047949195
1744927510885021000,11.30802099609375,0.3843232155341655,0.26358897711038587,0.13120713538760317
1744927510894979800,11.317979736328125,0.45673196059763427,0.2709130363881588,0.16973503722976893
1744927510904938000,11.32793798828125,0.3925696503538638,0.18353636623024938,0.16195970878684893
1744927510914897000,11.33789697265625,0.29856450196690854,0.11449497870802879,0.2029315149161033
1744927510924856000,11.34785595703125,0.15221651433706282,0.0993143607109785,0.23438200745163484
1744927510934815000,11.35781494140625,0.03522087791971862,0.057062195914983745,0.17619095363719386
1744927510944772900,11.36777294921875,-0.07862513536028563,-0.015534838262200354,0.04805182751808315
1744927510954732000,11.37773193359375,-0.2937023758232593,-0.0772632724225521,-0.029996256872918455
1744927510964691000,11.38769091796875,-0.36237259194552895,-0.14239771563410758,-0.05688514058133587
1744927510974649900,11.39764990234375,-0.3397054906506091,-0.13703940347135066,-0.1268816551376134
1744927510984608000,11.40760791015625,-0.4011673097640276,-0.09778232883810996,-0.25455058819539844
1744927510994567000,11.41756689453125,-0.29746209368295967,-0.0861994430720806,-0.27177602815935387
1744927511004525800,11.42752587890625,-0.19289982238113879,-0.059921676999330514,-0.15406318338336422
1744927511014485000,11.437485107421875,-0.08763853596448898,0.006367781466245651,-0.08540133323064074
1744927511024443000,11.44744287109375,0.07945990568399429,0.04955050511062145,-0.10733957226173951
1744927511034401800,11.45740185546875,0.21338088487386703,0.15378069491386412,-0.0034812114455737174
1744927511044361000,11.46736083984375,0.2494101565670222,0.1956622728317976,0.14532626163298262
1744927511054320000,11.477320068359376,0.2943529486864805,0.12960954573154448,0.22548874436207114
1744927511064277800,11.48727783203125,0.32018362857885657,0.1169213290721178,0.16055954139903186
1744927511074237000,11.49723681640625,0.2939532087791711,0.1631020654886961,0.18873499431926755
1744927511084196000,11.507196044921875,0.2678572290141135,0.16985270879268646,0.24443859696583822
1744927511094155000,11.517155029296875,0.09255969881899655,0.11014438228309154,0.18924988503884524
1744927511104113200,11.527113037109375,-0.10515022725760936,-0.04091828584372997,0.04660540983574465
1744927511114072000,11.537072021484375,-0.23262268789522347,-0.1311298871666193,-0.018689722096547484
1744927511124031000,11.547031005859376,-0.35642566623985766,-0.1200847615391016,-0.014192776003479957
1744927511133990100,11.556990234375,-0.41743272732309994,-0.08974924450814724,-0.11301613832712173
1744927511143948000,11.566947998046874,-0.37349662802815436,-0.1088257008999586,-0.2089736263582483
1744927511153907000,11.576906982421875,-0.27552659459821877,-0.11110884340107441,-0.25384379163291304
1744927511163866000,11.5868662109375,-0.19325404264628887,-0.027293665117025374,-0.17269567713364958
1744927511173825000,11.596824951171875,-0.03997479444853961,0.02493921094536781,-0.10798166955756022
1744927511183783200,11.606783203125,0.06660334672033787,0.07080079841017722,-0.10575217520613223
1744927511193742000,11.6167421875,0.15396240815632045,0.11672376067340373,-0.03773638613829389
1744927511203701000,11.626700927734374,0.2880003647893667,0.11722118880152702,0.09860370995728299
1744927511213660000,11.636659912109375,0.33300862336046994,0.17373977935910223,0.20217152686165646
1744927511223618000,11.6466181640625,0.3972188643991947,0.19740239449739455,0.22338736990233882
1744927511233577000,11.656576904296875,0.38588155089206994,0.18456337119042873,0.23797878983458504
1744927511243536000,11.666535888671875,0.26195764958150686,0.18017887249588965,0.2490164628080092
1744927511253495000,11.6764951171875,0.1481874780166894,0.05086217223107815,0.204033850134816
1744927511263453000,11.686452880859376,-0.008156345383450388,-0.030386370435357093,0.06666620108978823
1744927511273412000,11.696412109375,-0.20899171000421046,-0.025383447581529616,-0.018691493928525597
1744927511283371000,11.70637109375,-0.2832651529610157,-0.10123393059670925,-0.06500104435654357
1744927511293330000,11.716329833984375,-0.3832417769730091,-0.12280161928236484,-0.14405134632633998
1744927511303288000,11.7262880859375,-0.47145014871470625,-0.1600917777568102,-0.24861805634126066
1744927511313247000,11.7362470703125,-0.39370932190828023,-0.16029226876497268,-0.2539223367618397
1744927511323206000,11.746205810546876,-0.2859907785326242,-0.08217968603670596,-0.18981670687505975
1744927511333165000,11.7561650390625,-0.19718436783254145,-0.02271978133022785,-0.1665164222431369
1744927511343123000,11.766123046875,-0.05286357518136501,0.0072498249977827065,-0.12669049821337683
1744927511353081900,11.776081787109375,0.1522649565886706,0.08036591461300849,-0.025944515530392526
1744927511363041000,11.786041015625,0.278437513608858,0.15845511646568775,0.09473771871151403
1744927511373000000,11.796,0.3599648732166737,0.1849614305973053,0.18320759093360975
1744927511382957800,11.805957763671875,0.40379948489852246,0.20251871459782123,0.1993541678859852
1744927511392917000,11.8159169921875,0.3470248737532645,0.19452713132202623,0.25126921017086135
1744927511402876000,11.8258759765625,0.2718985402941704,0.14864216298162936,0.27988727402575314
1744927511412834800,11.835834716796874,0.16254267804026604,0.07192249591648578,0.18909348890073596
1744927511422793000,11.84579296875,0.0475998824995011,0.027846038302779198,0.08624781225845217
1744927511432751900,11.855751953125,-0.04390753078758716,0.009991232660412788,0.02450348640922457
1744927511442710800,11.865710693359375,-0.2127886911343783,0.012546177840232849,-0.03269327740455046
1744927511452670200,11.875670166015626,-0.2842091558128595,-0.12262626271545886,-0.1735964618982747
1744927511462627800,11.8856279296875,-0.34250352387130256,-0.17149930695593357,-0.23654627281343563
1744927511472586800,11.895586669921874,-0.364784402327612,-0.11610592103600502,-0.20263139945836736
1744927511482546200,11.905546142578125,-0.21524317161440848,-0.03312602453231811,-0.20810420484626665
1744927511492504600,11.915504638671875,-0.19360234462730586,0.041617374023795124,-0.20031956058572978
1744927511502462700,11.925462646484375,-0.10074344366602599,-0.02866319990456104,-0.15632152023678644
1744927511512421600,11.935421630859375,0.023036592194437978,-0.03340191886425018,-0.01618133773850277
1744927511522380500,11.945380615234376,0.08486388361938298,0.11927110706865787,0.1020286063720472
1744927511532339500,11.95533935546875,0.23437698421664535,0.14631693490445613,0.15348604108253494
1744927511542297600,11.965297607421874,0.31138891222663223,0.14311492399275302,0.17448566582296043
1744927511552256500,11.975256591796875,0.3510306022632867,0.14851181460022925,0.25048982329620045
1744927511562215700,11.985215576171875,0.4357394414514303,0.16991291454732418,0.3021279300695285
1744927511572174600,11.995174560546875,0.391485289183259,0.2418377485513687,0.1852088842860423
1744927511582132500,12.005132568359375,0.3231885094832629,0.1602121892660856,0.07360902423132211
1744927511592091600,12.015091552734376,0.08511040572635829,0.09282792130112648,0.05037062585446983
1744927511602050600,12.025050537109376,-0.19565408952534197,-0.022482465443015097,0.0005315861260518431
1744927511612009500,12.035009521484374,-0.2965256165504455,-0.19462708456516264,-0.13333313283193857
1744927511621967600,12.044967529296875,-0.3680138857681304,-0.17004735458195208,-0.2354577834569849
1744927511631926500,12.054926513671875,-0.4552846843987703,-0.024919921723008154,-0.22617382228309288
1744927511641885400,12.064885498046875,-0.3081335636924952,-0.08514730367064476,-0.153335654560104
1744927511651844600,12.0748447265625,-0.28437340646386144,-0.11700257761478423,-0.19024742644252254
1744927511661802500,12.084802490234376,-0.2516564741890877,-0.06759469584524631,-0.18782334110075607
1744927511671761400,12.094761474609374,-0.06218611479997634,-0.054884267354011536,-0.07021439509065822
1744927511681720600,12.104720458984374,0.05937814470715821,0.12724690825343132,0.08486242231465875
1744927511691679700,12.1146796875,0.1635287664681673,0.18872224443554877,0.1367811178613454
1744927511701637600,12.1246376953125,0.26023148337602614,0.09312193581163883,0.0960441799338907
1744927511711596800,12.1345966796875,0.29288696778714657,0.0753986475944519,0.19537792119877412
1744927511721555700,12.1445556640625,0.2516705027144402,0.1715665269732475,0.2599695993031375
1744927511731513600,12.154513671875,0.1793535275876522,0.16279402245283126,0.17519693763116373
1744927511741472800,12.16447265625,0.12720533413402735,0.04827858547866344,0.07937915033167228
1744927511751431700,12.174431640625,-0.05289813503809273,-0.002199555870890617,0.10207273777471855
1744927511761390600,12.184390625,-0.2011351512849331,-0.03548340131342411,0.11359687909083441
1744927511771348700,12.1943486328125,-0.18750358936078845,-0.08866670996844768,0.003117474433407187
1744927511781307600,12.2043076171875,-0.201269591319561,-0.06980535763204097,-0.19087702958295122
1744927511791266600,12.2142666015625,-0.17571429430246352,0.009822305834293365,-0.2578981450576335
1744927511801225700,12.224225830078124,-0.05199490258805453,0.05351473256647586,-0.17020670986212788
1744927511811183600,12.23418359375,0.020472879186272618,0.0266869313955307,-0.17813598675774409
1744927511821142800,12.244142822265625,-0.013137129470705985,0.0358019657433033,-0.2689984532047994
1744927511831101700,12.254101806640625,0.14103051893413066,0.018209610429406164,-0.1725256908616051
