time,seconds_elapsed,z,y,x
1744927499611725800,0.034725830078125,-0.01607133261859417,-0.013758503831923008,-0.01602434739470482
1744927499621683700,0.04468359375,0.023900317028164864,-0.016471998766064644,0.0006459755823016167
1744927499631643000,0.054642822265625,0.037463974207639694,-0.01489863358438015,0.01945418305695057
1744927499641601800,0.064601806640625,0.04325821250677109,-0.007649242877960205,0.03266080096364021
1744927499651560700,0.074560791015625,0.03302895650267601,-0.021902643144130707,0.03156285732984543
1744927499661518800,0.084518798828125,0.013228354044258595,-0.021486390382051468,0.029250167310237885
1744927499671477800,0.094477783203125,-0.013478846289217472,-0.026994992047548294,0.02839081548154354
1744927499681436700,0.104436767578125,-0.03630479797720909,-0.01150231808423996,0.024975311011075974
1744927499691395800,0.114395751953125,-0.04910118877887726,-0.00627874955534935,0.029864048585295677
1744927499701353700,0.124353759765625,-0.03790579363703728,0.002179183531552553,0.017326684668660164
1744927499711313000,0.13431298828125,-0.009143130853772163,-0.002998015843331814,-0.008000113070011139
1744927499721271800,0.144271728515625,0.01951567828655243,-0.0005353908054530621,-0.0291243065148592
1744927499731230700,0.154230712890625,0.03181822597980499,0.012121738865971565,-0.03412952646613121
1744927499741188900,0.16418896484375,0.03589446097612381,0.007591436617076397,-0.04178505018353462
1744927499751147800,0.174147705078125,0.040592364966869354,-0.010780083015561104,-0.0539151094853878
1744927499761106700,0.184106689453125,0.012376708909869194,-0.00865035317838192,-0.06472913920879364
1744927499771064800,0.19406494140625,-0.03803201764822006,0.009437110275030136,-0.05364935100078583
1744927499781023700,0.204023681640625,-0.06944479793310165,0.023498335853219032,-0.01930389553308487
1744927499790982700,0.213982666015625,-0.055659111589193344,0.0195704847574234,-0.0008921585977077484
1744927499800941800,0.22394189453125,0.0011130906641483307,0.006761744152754545,-0.0012327769072726369
1744927499810899700,0.233899658203125,0.037604283541440964,-0.011629737913608551,0.010728154331445694
1744927499820858600,0.243858642578125,0.03259754180908203,-0.024399595335125923,0.008516665548086166
1744927499830817800,0.25381787109375,-0.02026967518031597,0.04633723199367523,0.027585599571466446
1744927499840776700,0.263776611328125,-0.019137298688292503,-0.010267188772559166,0.029043149203062057
1744927499850734600,0.273734619140625,0.006500177085399628,-0.05094587802886963,0.02095726504921913
1744927499860693800,0.28369384765625,-0.037810828536748886,-0.02267535775899887,0.023154105991125107
1744927499870652700,0.293652587890625,-0.018668437376618385,-0.06116515398025513,0.037653665989637375
1744927499880611600,0.303611572265625,-0.026054980233311653,-0.06739615648984909,0.06362108141183853
1744927499890569700,0.31356982421875,-0.04994199052453041,-0.055601440370082855,0.027372876182198524
1744927499900528600,0.323528564453125,-0.043528035283088684,-0.009511709213256836,-0.015112531371414661
1744927499910487600,0.333487548828125,-0.022892121225595474,-0.034782782196998596,-0.0012619415065273643
1744927499920446700,0.34344677734375,0.005254028365015984,-0.01814468577504158,0.00620609475299716
1744927499930404600,0.353404541015625,0.010945303365588188,0.013729402795433998,-0.0031565427780151367
1744927499940363500,0.363363525390625,0.0106206638738513,0.037005163729190826,-0.02663763239979744
1744927499950322700,0.37332275390625,0.034223075956106186,0.05137115716934204,-0.04865559935569763
1744927499960281900,0.38328173828125,0.05174347758293152,0.042066071182489395,-0.029585769400000572
1744927499970239700,0.39323974609375,0.04655646160244942,0.04601272940635681,-0.0027639642357826233
1744927499980198700,0.40319873046875,0.030541008338332176,0.03969704359769821,-0.0003841636353172362
1744927499990157800,0.41315771484375,0.020367411896586418,0.02994491532444954,-0.007253175601363182
1744927500000116700,0.42311669921875,0.013497522100806236,-0.002288919873535633,0.0015301958192139864
1744927500010075000,0.433074951171875,-0.00598169257864356,-0.017364172264933586,0.01943497359752655
1744927500020033800,0.44303369140625,-0.02790616638958454,-0.027891915291547775,0.026574641466140747
1744927500029992700,0.45299267578125,-0.037873510271310806,-0.03950897976756096,0.018512511625885963
1744927500039952000,0.462951904296875,-0.04115665704011917,-0.04595782235264778,0.0056108273565769196
1744927500049909800,0.47290966796875,-0.041602250188589096,-0.04066493734717369,0.0011057734955102205
1744927500059869000,0.482868896484375,-0.03263618424534798,-0.033782798796892166,0.008114414289593697
1744927500069827800,0.492827880859375,-0.0205402635037899,-0.02793976292014122,0.010222946293652058
1744927500079786800,0.502786865234375,0.00032933318288996816,-0.007044867612421513,0.000453140411991626
1744927500089745000,0.512744873046875,0.0047446652315557,0.02138732187449932,0.0015226311516016722
1744927500099703800,0.522703857421875,0.023128733038902283,0.022934352979063988,0.009957394562661648
1744927500109662700,0.532662841796875,0.04717329517006874,0.04046551510691643,0.007050633430480957
1744927500119621600,0.54262158203125,0.044736769050359726,0.027751313522458076,0.02101784758269787
1744927500129579800,0.552579833984375,0.03001263365149498,0.05281354859471321,0.027993112802505493
1744927500139538700,0.56253857421875,0.03126565366983414,0.03395916894078255,0.022583432495594025
1744927500149497900,0.572497802734375,0.03255435824394226,-0.00079738674685359,0.016643822193145752
1744927500159456800,0.582456787109375,0.006239132024347782,-0.00353485019877553,0.0002669792156666517
1744927500169414700,0.59241455078125,-0.0236891508102417,-0.002688600914552808,-0.013653975911438465
1744927500179373800,0.602373779296875,-0.036055274307727814,-0.03424146771430969,-0.00859902985394001
1744927500189332700,0.612332763671875,-0.03506845980882645,-0.04479151964187622,-0.010624788701534271
1744927500199291000,0.622290771484375,-0.03328467532992363,-0.042598940432071686,-0.029737230390310287
1744927500209249800,0.632249755859375,-0.04158192127943039,-0.02964075282216072,-0.02958492562174797
1744927500219208700,0.642208740234375,-0.030282925814390182,-0.020089592784643173,-0.022872161120176315
1744927500229167600,0.652167724609375,-0.01516680233180523,-0.01577630639076233,-0.014748449437320232
1744927500239125800,0.662125732421875,0.005930493585765362,-0.004152141977101564,0.003767977003008127
1744927500249084700,0.672084716796875,0.015077364630997181,0.01158897578716278,0.005534711759537458
1744927500259043600,0.682043701171875,0.02299494296312332,0.038143351674079895,-0.005453490652143955
1744927500269002800,0.692002685546875,0.03214329108595848,0.029426902532577515,0.00791182741522789
1744927500278960600,0.701960693359375,0.043651875108480453,0.023911230266094208,0.026107076555490494
1744927500288919800,0.711919921875,0.03688879683613777,0.031890176236629486,0.027613138779997826
1744927500298878700,0.721878662109375,0.019743897020816803,0.03443882241845131,0.012407554313540459
1744927500308837600,0.731837646484375,0.01312374696135521,0.014667248353362083,-0.00046865889453329146
1744927500318795800,0.741795654296875,0.0000404355232603848,-0.006534177344292402,0.005591896828263998
1744927500328754700,0.751754638671875,-0.012021287344396114,-0.012447459623217583,0.019052578136324883
1744927500338713600,0.761713623046875,-0.021971123293042183,-0.025205865502357483,0.014871149323880672
1744927500348672500,0.771672607421875,-0.026999982073903084,-0.03969108313322067,-0.0029633783269673586
1744927500358630700,0.781630615234375,-0.032419778406620026,-0.03250214457511902,-0.02607402391731739
1744927500368589600,0.791589599609375,-0.03541984409093857,-0.021068673580884933,-0.019115054979920387
1744927500378548700,0.801548828125,-0.023562917485833168,-0.01846090704202652,-0.005929210688918829
1744927500388508000,0.8115078125,0.0019099527271464467,-0.023465517908334732,-0.015357600525021553
1744927500398465500,0.821465576171875,0.0019863853231072426,-0.00252827862277627,-0.02225412242114544
1744927500408425000,0.831425048828125,-0.007562823593616486,0.025247721001505852,-0.0257859043776989
1744927500418384000,0.8413837890625,0.010634556412696838,0.027775060385465622,-0.015093578025698662
1744927500428342800,0.8513427734375,0.0394560731947422,0.01751592755317688,0.004616567865014076
1744927500438301000,0.861301025390625,0.03413667529821396,0.015612300485372543,0.006285305134952068
1744927500448259800,0.871259765625,0.014613230712711811,0.04886673763394356,-0.0014345936942845583
1744927500458218800,0.88121875,0.009118597023189068,0.0348353385925293,0.007420151028782129
1744927500468178000,0.891177978515625,0.024114878848195076,-0.013508729636669159,0.017251215875148773
1744927500478135800,0.9011357421875,0.011988707818090916,-0.011664224788546562,0.018604367971420288
1744927500488094500,0.911094482421875,-0.021296555176377296,-0.012435756623744965,0.01611124537885189
1744927500498053600,0.9210537109375,-0.03118274174630642,-0.01667897030711174,0.023920433595776558
1744927500508012500,0.931012451171875,-0.03808346763253212,-0.06020817533135414,0.061903953552246094
1744927500517970700,0.940970703125,-0.04176262393593788,-0.084712453186512,0.09602144360542297
1744927500527929600,0.9509296875,-0.04110380634665489,-0.09398598968982697,0.0916396901011467
1744927500537888500,0.960888427734375,-0.05127308517694473,-0.09540891647338867,0.07738325744867325
1744927500547847400,0.970847412109375,-0.06279949098825455,-0.0572584867477417,0.0683639794588089
1744927500557805600,0.9808056640625,-0.04217463731765747,-0.035083409398794174,0.03622814640402794
1744927500567764500,0.990764404296875,0.001931933918967843,-0.02418757602572441,-0.0028969128616154194
1744927500577723400,1.000723388671875,0.030588610097765923,-0.013996989466249943,-0.03428839147090912
1744927500587681500,1.010681640625,0.030658842995762825,0.00709895882755518,-0.0483703538775444
1744927500597640400,1.020640380859375,0.011689945124089718,0.0444633774459362,-0.021660178899765015
1744927500607599600,1.030599609375,0.009262830018997192,0.02929510548710823,-0.003578812349587679
1744927500617558500,1.04055859375,0.02825063467025757,0.025832995772361755,-0.008940287865698338
1744927500627516400,1.050516357421875,0.025522170588374138,0.016530677676200867,-0.0009043866884894669
1744927500637475600,1.0604755859375,0.014852216467261314,0.004986141342669725,-0.005472240503877401
1744927500647434500,1.0704345703125,0.004662496503442526,0.006923235021531582,-0.014295768924057484
1744927500657393400,1.080393310546875,-0.008660233579576015,-0.02603285014629364,-0.04222407191991806
1744927500667351600,1.0903515625,-0.02844332531094551,-0.03116201050579548,-0.06204923614859581
1744927500677310500,1.100310546875,-0.0427575521171093,-0.04229002818465233,-0.05421208590269089
1744927500687269400,1.110269287109375,-0.06619890034198761,-0.04977521300315857,-0.035257112234830856
1744927500697228500,1.120228515625,-0.07763291895389557,-0.003433546517044306,-0.022862495854496956
1744927500707186400,1.1301865234375,-0.051619939506053925,0.047921281307935715,-0.016033612191677094
1744927500717145300,1.140145263671875,0.046881332993507385,0.026911605149507523,-0.016507120802998543
1744927500727104500,1.1501044921875,0.09931611269712448,0.029784798622131348,-0.00855726283043623
1744927500737063700,1.160063720703125,0.077543705701828,0.08950991183519363,-0.015464437194168568
1744927500747021300,1.170021240234375,0.058447495102882385,0.09980515390634537,-0.023173892870545387
1744927500756980500,1.17998046875,0.06700290739536285,0.03776920959353447,-0.0017176021356135607
1744927500766939600,1.189939697265625,0.043485116213560104,0.004596504848450422,0.015248519368469715
1744927500776898600,1.199898681640625,-0.01859316974878311,0.007410666439682245,0.013752620667219162
1744927500786856400,1.2098564453125,-0.0519404411315918,0.011104338802397251,0.003559286706149578
1744927500796815600,1.219815673828125,-0.035144414752721786,-0.022187836468219757,-0.005721563007682562
1744927500806774500,1.2297744140625,-0.022093452513217926,-0.028908930718898773,0.009938112460076809
1744927500816733700,1.239733642578125,-0.011405919678509235,-0.006062204949557781,0.007917039096355438
1744927500826691600,1.249691650390625,0.0021139620803296566,0.019880104809999466,-0.010050049982964993
1744927500836650500,1.259650390625,0.028179118409752846,0.0458267480134964,-0.009963230229914188
1744927500846609700,1.269609619140625,0.05936577171087265,0.033124685287475586,0.006805851124227047
1744927500856567600,1.279567626953125,0.06784501671791077,0.032027728855609894,0.02953193709254265
1744927500866526700,1.289526611328125,0.03388344123959541,0.0386493094265461,0.039842378348112106
1744927500876485600,1.299485595703125,-0.0005203369073569775,0.03600399196147919,0.039605624973773956
1744927500886444500,1.309444580078125,-0.006155630107969046,-0.0002018306404352188,0.0559733621776104
1744927500896402700,1.319402587890625,-0.006267482880502939,-0.03714759647846222,0.08413656055927277
1744927500906361600,1.329361572265625,-0.032729074358940125,-0.005756060592830181,0.07628273963928223
1744927500916320500,1.339320556640625,-0.041269831359386444,0.0399555005133152,0.026745544746518135
1744927500926279400,1.349279541015625,0.017930319532752037,0.06935663521289825,-0.04289843514561653
1744927500936237600,1.359237548828125,0.0818251520395279,0.021951571106910706,-0.07253968715667725
1744927500946196500,1.369196533203125,0.06150752305984497,0.03869668394327164,-0.0858975425362587
1744927500956155600,1.37915576171875,-0.00573569443076849,0.07831626385450363,-0.09672968089580536
1744927500966114600,1.389114501953125,0.0014824043028056622,0.04513292387127876,-0.05435224622488022
1744927500976072400,1.399072509765625,0.05901067703962326,-0.04969531670212746,0.01573522947728634
1744927500986031600,1.409031494140625,0.05463311821222305,-0.08816155791282654,0.08147671818733215
1744927500995990500,1.418990478515625,-0.02167443558573723,-0.05682627111673355,0.08650396764278412
1744927501005949400,1.428949462890625,-0.08601552993059158,-0.0314171239733696,0.045625168830156326
1744927501015907600,1.438907470703125,-0.08544187992811203,-0.03161579743027687,0.008138512261211872
1744927501025866500,1.448866455078125,-0.04904041439294815,-0.031715504825115204,0.008925397880375385
1744927501035825400,1.458825439453125,-0.013727695681154728,-0.015073676593601704,0.010270826518535614
1744927501045784600,1.46878466796875,0.015019463375210762,0.017982367426156998,-0.009737559594213963
1744927501055742500,1.478742431640625,0.03776312246918678,0.019710225984454155,-0.01956995017826557
1744927501065701400,1.488701416015625,0.059595365077257156,0.00438237190246582,0.00016876548761501908
1744927501075660500,1.49866064453125,0.04973660781979561,-0.02293393760919571,0.03610439598560333
1744927501085618400,1.508618408203125,0.004802944604307413,-0.04238967224955559,0.033497557044029236
1744927501095577600,1.51857763671875,-0.049184124916791916,-0.0408913791179657,-0.001975215272977948
1744927501105536500,1.52853662109375,-0.0780935138463974,-0.05039191246032715,-0.026230746880173683
1744927501115495400,1.538495361328125,-0.07693184167146683,-0.06644225120544434,-0.028601760044693947
1744927501125453600,1.54845361328125,-0.06253395229578018,-0.06799978762865067,-0.030624913051724434
1744927501135412500,1.55841259765625,-0.05476684123277664,-0.048914242535829544,-0.03719812631607056
1744927501145371400,1.568371337890625,-0.0357775054872036,-0.021965891122817993,-0.023970795795321465
1744927501155330300,1.578330322265625,0.004664193838834763,-0.04163413494825363,0.0070337257348001
1744927501165288400,1.588288330078125,0.023568829521536827,-0.04890688881278038,0.022120341658592224
1744927501175247400,1.598247314453125,0.000243000453338027,-0.01684482768177986,0.023851929232478142
1744927501185206500,1.60820654296875,-0.019464410841464996,0.005276602692902088,0.016295164823532104
1744927501195165700,1.618165771484375,-0.004446046892553568,-0.004844474606215954,0.0013588243164122105
1744927501205123300,1.628123291015625,0.007840589620172977,-0.00942385382950306,-0.014164718799293041
1744927501215082800,1.638082763671875,-0.000614147400483489,-0.030158692970871925,-0.045149266719818115
1744927501225041700,1.648041748046875,-0.04083399474620819,0.023729585111141205,-0.06737880408763885
1744927501235000600,1.65800048828125,-0.037787072360515594,0.023297354578971863,-0.06834712624549866
1744927501244958700,1.667958740234375,0.00757325254380703,0.004734989255666733,-0.03591097518801689
1744927501254917600,1.677917724609375,0.034739360213279724,0.022723045200109482,-0.021330701187253
1744927501264876500,1.68787646484375,0.03771369159221649,0.03704238682985306,-0.025017740204930305
1744927501274835700,1.697835693359375,0.02987227775156498,0.043178580701351166,-0.021111948415637016
1744927501284793600,1.707793701171875,0.012064331211149693,0.051703281700611115,-0.01063807588070631
1744927501294752500,1.71775244140625,-0.008923775516450405,0.06584493070840836,-0.0025900029577314854
1744927501304711700,1.727711669921875,0.020095447078347206,0.0464094802737236,-0.016885217279195786
1744927501314669600,1.737669677734375,0.04894067719578743,0.025118306279182434,-0.03835508972406387
1744927501324628500,1.74762841796875,0.03639195114374161,0.059546347707509995,-0.03432881832122803
1744927501334587600,1.757587646484375,0.023838873952627182,0.0791834369301796,-0.025649843737483025
1744927501344546600,1.767546630859375,0.04416511952877045,0.07210208475589752,-0.02471969835460186
1744927501354504700,1.777504638671875,0.06477292627096176,0.05428500846028328,-0.02284829504787922
1744927501364463600,1.787463623046875,0.06053932011127472,0.033842701464891434,-0.01347525417804718
1744927501374422500,1.797422607421875,0.03809553012251854,0.01484078448265791,0.011453529819846153
1744927501384381400,1.80738134765625,-0.009664690122008324,-0.0061232950538396835,0.020570969209074974
1744927501394339600,1.817339599609375,-0.03829260542988777,-0.025563837960362434,0.020450063049793243
1744927501404298500,1.827298583984375,-0.04783645272254944,-0.0650256872177124,0.02066975086927414
1744927501414257400,1.83725732421875,-0.058297351002693176,-0.08709050714969635,0.0400538332760334
1744927501424216600,1.847216552734375,-0.0784667506814003,-0.0791405513882637,0.05137791112065315
1744927501434174500,1.857174560546875,-0.07263603061437607,-0.0719904974102974,0.03900832682847977
1744927501444133600,1.867133544921875,-0.044643834233284,-0.0597376823425293,0.017105383798480034
1744927501454092500,1.877092529296875,-0.020921994000673294,-0.027716901153326035,0.008181129582226276
1744927501464051500,1.887051513671875,0.0031760195270180702,0.015554052777588367,0.005591358058154583
1744927501474009600,1.897009521484375,0.03371421992778778,0.038252443075180054,0.007894459180533886
1744927501483968800,1.90696875,0.058507129549980164,0.053259991109371185,-0.014152439311146736
1744927501493927700,1.916927734375,0.0640166774392128,0.08154835551977158,-0.03393013775348663
1744927501503886600,1.926886474609375,0.06321518868207932,0.08263365924358368,-0.04613196477293968
1744927501513844700,1.9368447265625,0.062426891177892685,0.0771307721734047,-0.0470329150557518
1744927501523803600,1.9468037109375,0.051483966410160065,0.05011140927672386,-0.03329286724328995
1744927501533762800,1.9567626953125,0.023600134998559952,0.028516102582216263,-0.029001981019973755
1744927501543721700,1.9667216796875,-0.009428511373698711,0.0045571643859148026,-0.013722073286771774
1744927501553679600,1.9766796875,-0.026868220418691635,-0.029502268880605698,0.006618085782974958
1744927501563638800,1.986638671875,-0.04422134906053543,-0.06370893120765686,0.016642365604639053
1744927501573597700,1.99659765625,-0.06831469386816025,-0.07867403328418732,0.031689759343862534
1744927501583555600,2.0065556640625,-0.07656221836805344,-0.07577373087406158,0.04031152278184891
1744927501593514800,2.0165146484375,-0.06401926279067993,-0.06676052510738373,0.04256961867213249
1744927501603473700,2.0264736328125,-0.03721160441637039,-0.06822099536657333,0.0439804270863533
1744927501613432600,2.0364326171875,-0.01795854978263378,-0.02654252015054226,0.03060656413435936
1744927501623390700,2.046390625,0.00014384393580257893,0.019779734313488007,0.010835093446075916
1744927501633349600,2.056349609375,0.021731693297624588,0.03639013692736626,-0.007658429443836212
1744927501643308500,2.06630859375,0.056504689157009125,0.04896748811006546,-0.019287150353193283
1744927501653267700,2.076267822265625,0.06500843167304993,0.06140418350696564,-0.035303402692079544
1744927501663225600,2.0862255859375,0.05513580143451691,0.08437968790531158,-0.04796118661761284
1744927501673184500,2.0961845703125,0.05400049313902855,0.06915652751922607,-0.05658130720257759
1744927501683144000,2.10614404296875,0.05682162567973137,0.05097474530339241,-0.05411223694682121
1744927501693102800,2.116102783203125,0.02734416350722313,0.019398709759116173,-0.045587725937366486
1744927501703060700,2.126060791015625,-0.010060478933155537,0.0076520247384905815,-0.02639499120414257
1744927501713020000,2.13602001953125,-0.02971780300140381,-0.0247005894780159,-0.00740931648761034
1744927501722978800,2.145978759765625,-0.04372531175613403,-0.06111311912536621,0.015162911266088486
1744927501732937700,2.155937744140625,-0.0579090416431427,-0.07291677594184875,0.03324044868350029
1744927501742895900,2.165895751953125,-0.07234536856412888,-0.07050200551748276,0.0461190789937973
1744927501752854800,2.175854736328125,-0.060079384595155716,-0.061343125998973846,0.06084635853767395
1744927501762813700,2.185813720703125,-0.028759542852640152,-0.06714056432247162,0.06298594176769257
1744927501772771800,2.195771728515625,-0.015099124051630497,-0.035699546337127686,0.058048706501722336
1744927501782730800,2.205730712890625,-0.012417299672961235,0.0077422303147614,0.05008719488978386
1744927501792690000,2.21568994140625,0.017321154475212097,0.023466598242521286,0.02421964332461357
1744927501802648800,2.22564892578125,0.05345736816525459,0.030762743204832077,-0.012600371614098549
1744927501812606700,2.235606689453125,0.0529463067650795,0.06161307170987129,-0.033767443150281906
1744927501822566000,2.24556591796875,0.04969600588083267,0.08754616230726242,-0.051632359623909
1744927501832524800,2.25552490234375,0.06405683606863022,0.07103216648101807,-0.07149554789066315
1744927501842483700,2.265483642578125,0.0638018473982811,0.046415336430072784,-0.07529935240745544
1744927501852441900,2.27544189453125,0.022253870964050293,0.0397675558924675,-0.07130887359380722
1744927501862400800,2.28540087890625,-0.023990243673324585,0.029548224061727524,-0.03749635070562363
1744927501872359700,2.295359619140625,-0.03592413291335106,-0.03238145634531975,0.0017128379549831152
1744927501882318800,2.30531884765625,-0.026820166036486626,-0.07079201936721802,0.018323494121432304
1744927501892276700,2.31527685546875,-0.05048874393105507,-0.0737294852733612,0.02906029485166073
1744927501902235600,2.325235595703125,-0.07906743139028549,-0.06069932132959366,0.04580540210008621
1744927501912194800,2.33519482421875,-0.05620020255446434,-0.045216500759124756,0.061599813401699066
1744927501922153700,2.34515380859375,-0.017060697078704834,-0.07695052027702332,0.07219419628381729
1744927501932111600,2.355111572265625,-0.009206503629684448,-0.04520058259367943,0.06561645865440369
1744927501942070800,2.36507080078125,-0.014752536080777645,0.020825039595365524,0.03158844634890556
1744927501952029700,2.37502978515625,0.011477469466626644,0.026001958176493645,-0.0026030810549855232
1744927501961987800,2.38498779296875,0.04958215355873108,0.04833519458770752,-0.025992127135396004
1744927501971946800,2.39494677734375,0.05175396427512169,0.044582802802324295,-0.045968763530254364
1744927501981905700,2.40490576171875,0.03731772303581238,0.08892437815666199,-0.059434786438941956
1744927501991864600,2.414864501953125,0.04495353624224663,0.07552175223827362,-0.06912097334861755
1744927502001822700,2.42482275390625,0.046315353363752365,0.03526391461491585,-0.06758487969636917
1744927502011781600,2.43478173828125,0.0290847048163414,0.02601582184433937,-0.03887919336557388
1744927502021740800,2.44474072265625,-0.01870359107851982,-0.004845155868679285,-0.007989187724888325
1744927502031699700,2.45469970703125,-0.044661689549684525,-0.016505006700754166,0.01830473355948925
1744927502041657600,2.46465771484375,-0.042390864342451096,-0.07597169280052185,0.03654240816831589
1744927502051616800,2.47461669921875,-0.042501118034124374,-0.07430588454008102,0.04207272827625275
1744927502061575700,2.48457568359375,-0.05980077013373375,-0.050797924399375916,0.06024027243256569
1744927502071534600,2.49453466796875,-0.052132997661828995,-0.049147829413414,0.07740114629268646
1744927502081492700,2.50449267578125,-0.016374900937080383,-0.044603101909160614,0.06625445932149887
1744927502091451600,2.51445166015625,-0.008311382494866848,-0.03375072032213211,0.06422033905982971
1744927502101410600,2.52441064453125,-0.0011510845506563783,0.007025811821222305,0.04184497147798538
1744927502111369700,2.53436962890625,0.02372044138610363,0.03123847395181656,-0.0010814585257321596
1744927502121327600,2.54432763671875,0.0540287010371685,0.02243027463555336,-0.04624345153570175
1744927502131286500,2.55428662109375,0.05258713290095329,0.08662151545286179,-0.06924943625926971
1744927502141246000,2.564245849609375,0.02210894040763378,0.08721303194761276,-0.07357537001371384
1744927502151204900,2.574204833984375,0.03447452932596207,0.04999162256717682,-0.08291028439998627
1744927502161162800,2.584162841796875,0.054784707725048065,0.02403039112687111,-0.09920872002840042
1744927502171122000,2.594121826171875,-0.0008465978316962719,0.01211966946721077,-0.07676120102405548
1744927502181080800,2.604080810546875,-0.03880646452307701,0.05021516606211662,-0.03843710571527481
1744927502191038700,2.614038818359375,-0.017356563359498978,-0.02314213663339615,0.010379699990153313
1744927502200998000,2.623997802734375,0.010493920184671879,-0.07817066460847855,0.056436486542224884
1744927502210956800,2.633956787109375,-0.02991022914648056,-0.05983826145529747,0.07779264450073242
1744927502220915700,2.643915771484375,-0.07537208497524261,-0.005493576172739267,0.08696193248033524
1744927502230873900,2.653873779296875,-0.04404718801379204,-0.05690164119005203,0.09643585979938507
1744927502240832800,2.663832763671875,0.008842570707201958,-0.08743924647569656,0.09322135895490646
1744927502250791700,2.673791748046875,-0.0011695835273712873,-0.03711429238319397,0.07051312178373337
1744927502260750800,2.683750732421875,-0.038344625383615494,0.02734355628490448,0.03890939801931381
1744927502270708700,2.693708740234375,-0.0007724827155470848,0.032071731984615326,-0.011799854226410389
1744927502280668000,2.70366796875,0.05898116156458855,-0.003144711721688509,-0.044823404401540756
1744927502290626800,2.713626708984375,0.04559531435370445,0.0430813729763031,-0.05423181876540184
1744927502300585700,2.723585693359375,0.011787994764745235,0.08115150034427643,-0.07145271450281143
1744927502310544000,2.7335439453125,0.035331401973962784,0.06075061857700348,-0.08611554652452469
1744927502320502800,2.743502685546875,0.06552988290786743,0.01838829182088375,-0.08310700953006744
1744927502330461700,2.753461669921875,0.024900168180465698,0.03403196483850479,-0.07634524255990982
1744927502340420600,2.763420654296875,-0.020240003243088722,0.05395357683300972,-0.061845410615205765
1744927502350378800,2.773378662109375,-0.012160238809883595,0.0054299840703606606,-0.03437064215540886
1744927502360337700,2.783337646484375,0.0038265299517661333,-0.062163956463336945,0.006221224088221788
1744927502370296800,2.793296875,-0.03202361240983009,-0.0546136312186718,0.03632053732872009
1744927502380255700,2.803255859375,-0.06665066629648209,-0.032186128199100494,0.055785875767469406
1744927502390213600,2.813213623046875,-0.04903225600719452,-0.053002990782260895,0.07031635195016861
1744927502400172800,2.8231728515625,-0.014218373224139214,-0.08509784191846848,0.06466484814882278
1744927502410131700,2.833131591796875,-0.014957666397094727,-0.02668806165456772,0.051364488899707794
1744927502420089600,2.843089599609375,-0.0316457636654377,-0.0027575180865824223,0.04401475563645363
1744927502430048800,2.853048828125,0.010055341757833958,0.00741176214069128,0.006981635466217995
1744927502440007700,2.863007568359375,0.03751872479915619,-0.0002454477362334728,-0.02305663377046585
1744927502449966600,2.872966552734375,0.0206766277551651,0.047383058816194534,-0.03557296097278595
1744927502459924700,2.8829248046875,0.02106131985783577,0.06394702941179276,-0.05857905372977257
1744927502469883600,2.892883544921875,0.052459459751844406,0.041570622473955154,-0.0829714834690094
1744927502479842600,2.902842529296875,0.048286981880664825,0.037598736584186554,-0.07229351252317429
1744927502489801700,2.9128017578125,0.01405258011072874,0.05412445217370987,-0.07843023538589478
1744927502499759600,2.922759521484375,0.003190611256286502,0.035324662923812866,-0.08476163446903229
1744927502509718800,2.93271875,0.008557946421205997,-0.031218143180012703,-0.049521081149578094
1744927502519677700,2.942677734375,-0.019513247534632683,-0.034968066960573196,-0.009886343963444233
1744927502529636600,2.95263671875,-0.05804439261555672,-0.02481263503432274,0.021830571815371513
1744927502539594800,2.9625947265625,-0.06572703272104263,-0.03148610144853592,0.07807685434818268
1744927502549553700,2.9725537109375,-0.028860632330179214,-0.07025320827960968,0.08867383748292923
1744927502559512600,2.9825126953125,-0.01194188091903925,-0.06533023715019226,0.09352420270442963
1744927502569471500,2.992471435546875,-0.03325089439749718,-0.024793993681669235,0.11413200944662094
1744927502579429600,3.0024296875,-0.021938810124993324,-0.015489292331039906,0.1160881519317627
1744927502589388500,3.012388427734375,0.018744703382253647,-0.0136503791436553,0.09387392550706863
1744927502599347700,3.02234765625,0.03256959468126297,0.000002523418515920639,0.051363639533519745
1744927502609305600,3.0323056640625,0.019290540367364883,0.02859342098236084,-0.003049268154427409
1744927502619264500,3.042264404296875,0.02390451170504093,0.060029786080121994,-0.03492885082960129
1744927502629223700,3.0522236328125,0.04808308556675911,0.040247563272714615,-0.07125623524188995
1744927502639182600,3.0621826171875,0.047863662242889404,0.054283514618873596,-0.12697701156139374
1744927502649140500,3.072140380859375,0.019713250920176506,0.06701768189668655,-0.15418227016925812
1744927502659099600,3.082099609375,0.003475192468613386,0.043357763439416885,-0.1536310762166977
1744927502669058600,3.09205859375,0.011596768163144588,0.037888165563344955,-0.12075036019086838
1744927502679017500,3.102017578125,-0.008866728283464909,0.0013723638840019703,-0.06289896368980408
1744927502688975600,3.1119755859375,-0.0371745303273201,-0.009785748086869717,-0.01789553463459015
1744927502698934500,3.1219345703125,-0.04181857407093048,-0.026558632031083107,0.03087945654988289
1744927502708893400,3.1318935546875,-0.03796231746673584,-0.07045125961303711,0.10878890007734299
1744927502718852600,3.1418525390625,-0.026123423129320145,-0.06566456705331802,0.16004057228565216
1744927502728810500,3.151810546875,-0.017931006848812103,-0.04601842537522316,0.1729355901479721
1744927502738769400,3.161769287109375,-0.0168503075838089,-0.05507664754986763,0.1671214997768402
1744927502748728600,3.171728515625,0.0013332231901586056,-0.022513912990689278,0.13105830550193787
1744927502758687500,3.1816875,0.0025362286251038313,-0.00367747712880373,0.11086428165435791
1744927502768645600,3.191645751953125,0.016053635627031326,0.003456331789493561,0.07366658002138138
1744927502778604500,3.2016044921875,0.04884110763669014,0.021849852055311203,-0.008508900180459023
1744927502788563700,3.211563720703125,0.046704988926649094,0.04386727139353752,-0.08647534251213074
1744927502798522600,3.221522705078125,0.017158370465040207,0.08286450058221817,-0.13745611906051636
1744927502808480500,3.23148046875,0.018591949716210365,0.07323610782623291,-0.17012272775173187
1744927502818439700,3.241439697265625,0.029879046604037285,0.025337856262922287,-0.17141613364219666
1744927502828398600,3.251398681640625,0.01201083417981863,0.027975451201200485,-0.16256484389305115
1744927502838356500,3.2613564453125,-0.021153289824724197,0.04086393862962723,-0.14541226625442505
1744927502848315600,3.271315673828125,-0.026801321655511856,0.0216127447783947,-0.09125875681638718
1744927502858274800,3.28127490234375,-0.012273565866053104,-0.030938245356082916,-0.017467807978391647
1744927502868233700,3.291233642578125,-0.0140251275151968,-0.04563223570585251,0.07161625474691391
1744927502878191600,3.301191650390625,-0.034802068024873734,-0.043409593403339386,0.13676010072231293
1744927502888150800,3.31115087890625,-0.029811570420861244,-0.04379069060087204,0.15881267189979553
1744927502898109700,3.321109619140625,-0.008754387497901917,-0.06412583589553833,0.16281694173812866
1744927502908068600,3.331068603515625,-0.00916265044361353,-0.05120284482836723,0.17268848419189453
1744927502918026800,3.34102685546875,-0.016368411481380463,-0.030674193054437637,0.14903080463409424
1744927502927985700,3.350985595703125,0.006174714770168066,-0.016803119331598282,0.08448083698749542
1744927502937944600,3.360944580078125,0.024316947907209396,0.0006519197486341,0.010946391150355339
1744927502947903700,3.37090380859375,0.013096516020596027,0.028484882786870003,-0.05657939240336418
1744927502957861600,3.380861572265625,0.012280523777008057,0.04933050647377968,-0.11012144386768341
1744927502967820500,3.390820556640625,0.02373078651726246,0.03687037527561188,-0.14825603365898132
1744927502977779700,3.40077978515625,0.02418684959411621,0.03336530178785324,-0.1705356389284134
1744927502987738600,3.410738525390625,0.008968216367065907,0.04653703048825264,-0.18747654557228088
1744927502997696500,3.420696533203125,-0.0020676227286458015,0.05677000433206558,-0.16970936954021454
1744927503007655700,3.43065576171875,0.0033806725405156612,0.035307858139276505,-0.11636599898338318
1744927503017614600,3.440614501953125,0.007502690888941288,-0.005634545348584652,-0.04605482146143913
1744927503027572700,3.45057275390625,-0.014344285242259502,-0.0049397265538573265,0.023334641009569168
1744927503037531600,3.46053173828125,-0.03161805868148804,-0.01773725263774395,0.09154246002435684
1744927503047490600,3.470490478515625,-0.01989215984940529,-0.051590025424957275,0.1387435346841812
1744927503057449500,3.480449462890625,-0.003334710141643882,-0.06246116757392883,0.16878430545330048
1744927503067407600,3.49040771484375,-0.02129347063601017,-0.060665130615234375,0.18236935138702393
1744927503077366500,3.500366455078125,-0.023063963279128075,-0.03688348829746246,0.1722325086593628
1744927503087325700,3.51032568359375,-0.0005682426271960139,-0.037737566977739334,0.12417791038751602
1744927503097284600,3.52028466796875,0.010619132779538631,-0.028689250349998474,0.06340416520833969
1744927503107242500,3.530242431640625,0.001361186383292079,-0.0029098507948219776,-0.0015985366189852357
1744927503117201700,3.54020166015625,0.00008493236964568496,0.018182208761572838,-0.07146449387073517
1744927503127160600,3.55016064453125,0.011442515067756176,0.030615441501140594,-0.13135498762130737
1744927503137119500,3.560119384765625,0.019819466397166252,0.038804274052381516,-0.16671516001224518
1744927503147077600,3.57007763671875,0.01547957956790924,0.05598858743906021,-0.1898135542869568
1744927503157036500,3.58003662109375,0.010567734017968178,0.06968659162521362,-0.18336701393127441
1744927503166995500,3.589995361328125,0.01223593857139349,0.057409148663282394,-0.13355684280395508
1744927503176954600,3.59995458984375,0.02142847143113613,0.02536257728934288,-0.07749146968126297
1744927503186912500,3.60991259765625,0.017370879650115967,0.019916946068406105,-0.011571037583053112
1744927503196871400,3.619871337890625,-0.003151651006191969,0.009858882986009121,0.067203588783741
1744927503206830600,3.62983056640625,-0.005055278539657593,-0.014686141163110733,0.12020688503980637
1744927503216789800,3.639789794921875,0.0040136054158210754,-0.04767788574099541,0.17036859691143036
1744927503226747400,3.649747314453125,-0.010540303774178028,-0.06537459045648575,0.2000817507505417
1744927503236706600,3.65970654296875,-0.03327716141939163,-0.041474923491477966,0.20263467729091644
1744927503246665700,3.669665771484375,-0.028252575546503067,-0.06194264814257622,0.1730823814868927
1744927503256623600,3.67962353515625,-0.010812434367835522,-0.0642700269818306,0.12297583371400833
1744927503266582800,3.689582763671875,-0.009591108188033104,-0.05256809666752815,0.059621892869472504
1744927503276541700,3.699541748046875,-0.02630174532532692,-0.014111032709479332,-0.015439540147781372
1744927503286500600,3.70950048828125,-0.014436030760407448,0.03573482111096382,-0.08488199859857559
1744927503296458800,3.719458740234375,0.00895266979932785,0.0011958708055317402,-0.14568351209163666
1744927503306417700,3.729417724609375,0.017053740099072456,0.05219008028507233,-0.18554943799972534
1744927503316376600,3.73937646484375,0.011608785018324852,0.06328944116830826,-0.19857896864414215
1744927503326335700,3.749335693359375,0.023979168385267258,0.0829496905207634,-0.18274301290512085
1744927503336293600,3.759293701171875,0.03533954918384552,0.05972151458263397,-0.13435108959674835
1744927503346252800,3.769252685546875,0.0348961316049099,0.028016049414873123,-0.06946344673633575
1744927503356211700,3.779211669921875,0.014992165379226208,0.029068127274513245,-0.009978994727134705
1744927503366170600,3.789170654296875,-0.008443918079137802,0.012077427469193935,0.053085725754499435
1744927503376128800,3.799128662109375,-0.011052817106246948,-0.04103603586554527,0.11033191531896591
1744927503386087700,3.809087646484375,-0.004918225575238466,-0.05299868807196617,0.15497954189777374
1744927503396046600,3.819046630859375,-0.032579049468040466,-0.06772938370704651,0.1925862729549408
1744927503406005500,3.829005615234375,-0.03655408322811127,-0.06324782222509384,0.18162044882774353
1744927503415963600,3.838963623046875,-0.02163919247686863,-0.0630970150232315,0.13643191754817963
1744927503425922600,3.848922607421875,-0.025385195389389992,-0.04654839262366295,0.09491322189569473
1744927503435881700,3.8588818359375,-0.03351541608572006,-0.019648674875497818,0.04934389889240265
1744927503445840600,3.868840576171875,-0.021125858649611473,-0.008572056889533997,-0.0004268535412847996
1744927503455798500,3.878798583984375,0.007603802718222141,-0.013034434989094734,-0.03990248963236809
1744927503465757700,3.8887578125,0.022710582241415977,0.013258155435323715,-0.09152759611606598
1744927503475716600,3.898716552734375,0.011550762690603733,0.061135873198509216,-0.1113477498292923
1744927503485675300,3.90867529296875,0.022547487169504166,0.062332697212696075,-0.09437435865402222
1744927503495634400,3.918634521484375,0.052151430398225784,0.024951741099357605,-0.09097004681825638
1744927503505593300,3.92859326171875,0.04454650729894638,0.029106006026268005,-0.06502313911914825
1744927503515552300,3.93855224609375,-0.0006089646485634148,0.042767252773046494,-0.03722957894206047
1744927503525510400,3.948510498046875,-0.008716425858438015,0.008749098517000675,-0.019674554467201233
1744927503535469300,3.95846923828125,0.005789013579487801,-0.021563533693552017,0.023086491972208023
1744927503545428200,3.96842822265625,-0.016163423657417297,-0.058732740581035614,0.07114163786172867
1744927503555387100,3.97838720703125,-0.04176506772637367,-0.027813632041215897,0.08261290937662125
1744927503565345300,3.98834521484375,-0.04457123950123787,-0.041044753044843674,0.06926354765892029
1744927503575304200,3.99830419921875,-0.017710354179143906,-0.05909062176942825,0.06397584080696106
1744927503585263400,4.008263427734375,-0.015280485153198242,-0.04178779944777489,0.043362174183130264
1744927503595222300,4.01822216796875,-0.02621225267648697,-0.006622742861509323,0.03965474292635918
1744927503605180200,4.02818017578125,-0.0028435466811060905,0.007874440401792526,0.01951218768954277
1744927503615139300,4.038139404296875,0.023568475618958473,-0.007555217016488314,-0.03603574261069298
1744927503625098200,4.04809814453125,0.01958172395825386,0.05561496317386627,-0.07087521255016327
1744927503635057200,4.05805712890625,0.015714293345808983,0.05505731329321861,-0.08183478564023972
1744927503645015300,4.068015380859375,0.04411504045128822,0.07965533435344696,-0.07460856437683105
1744927503654974200,4.07797412109375,0.04888031259179115,0.03768517076969147,-0.06026698276400566
1744927503664933000,4.08793310546875,0.031559113413095474,0.031120214611291885,-0.06406518071889877
1744927503674892300,4.097892333984375,0.014341766014695168,0.053341347724199295,-0.06133424863219261
1744927503684850200,4.10785009765625,-0.007109463680535555,0.0031183911487460136,-0.01203620620071888
1744927503694809000,4.11780908203125,-0.003239635145291686,-0.028526902198791504,0.052225466817617416
1744927503704768300,4.127768310546875,-0.021807992830872536,-0.0656641498208046,0.06442221254110336
1744927503714726100,4.13772607421875,-0.04730987176299095,-0.05137217789888382,0.08586496859788895
1744927503724685300,4.147685302734375,-0.06338311731815338,-0.07318639010190964,0.07969468832015991
1744927503734644200,4.157644287109375,-0.04609711095690727,-0.053780447691679,0.05200757831335068
1744927503744603100,4.16760302734375,-0.032399408519268036,-0.046288974583148956,0.057348012924194336
1744927503754561300,4.177561279296875,-0.027168583124876022,-0.022157123312354088,0.04140700772404671
1744927503764520200,4.187520263671875,-0.0018339308444410563,0.009801875799894333,-0.0184326209127903
1744927503774479000,4.19747900390625,0.03251534327864647,0.02774699218571186,-0.05013109743595123
1744927503784438000,4.20743798828125,0.040725868195295334,0.04310943931341171,-0.05390080064535141
1744927503794396200,4.217396240234375,0.037325214594602585,0.07299472391605377,-0.061251718550920486
1744927503804355000,4.22735498046875,0.04681778326630592,0.07932531833648682,-0.07411505281925201
1744927503814314200,4.237314208984375,0.054147347807884216,0.06832461804151535,-0.08012540638446808
1744927503824273400,4.2472734375,0.04724496603012085,0.04908221215009689,-0.0808178260922432
1744927503834231000,4.25723095703125,0.019995365291833878,0.057372987270355225,-0.05918432027101517
1744927503844190200,4.267190185546875,0.0004887751420028508,0.020001113414764404,-0.023019393905997276
1744927503854149400,4.2771494140625,-0.00865251012146473,-0.0276629701256752,0.005657432600855827
1744927503864108300,4.2871083984375,-0.027780665084719658,-0.04762283340096474,0.03815252706408501
1744927503874066400,4.29706640625,-0.04565490409731865,-0.05671348422765732,0.06008176505565643
1744927503884025300,4.307025390625,-0.050383877009153366,-0.050863053649663925,0.06972800195217133
1744927503893984300,4.316984375,-0.039436910301446915,-0.07669157534837723,0.08234157413244247
1744927503903943400,4.326943359375,-0.045559514313936234,-0.045011408627033234,0.08398847281932831
1744927503913901300,4.3369013671875,-0.029861826449632645,-0.05148516595363617,0.07697606086730957
1744927503923860200,4.346860107421875,0.0034412704408168793,-0.04158380255103111,0.07135013490915298
1744927503933819400,4.3568193359375,-0.0008733858703635633,-0.00862771924585104,0.023215530440211296
1744927503943777300,4.36677734375,0.004321908578276634,0.03492055833339691,-0.023304035887122154
1744927503953736200,4.376736083984375,0.029066437855362892,0.04956834390759468,-0.049278728663921356
1744927503963695400,4.3866953125,0.04914960265159607,0.04960749298334122,-0.07639583200216293
1744927503973654300,4.396654296875,0.05671107396483421,0.06694665551185608,-0.09467368572950363
1744927503983612400,4.4066123046875,0.04127033054828644,0.07767786085605621,-0.10278540849685669
1744927503993571300,4.4165712890625,0.031100204214453697,0.06547759473323822,-0.09771503508090973
1744927504003530200,4.4265302734375,0.025735799223184586,0.036431826651096344,-0.06606815755367279
1744927504013489200,4.4364892578125,0.004886468406766653,-0.003794656367972493,-0.021304940804839134
1744927504023447300,4.446447265625,-0.017884356901049614,0.007713661529123783,0.01440431922674179
1744927504033406200,4.45640625,-0.03553793579339981,-0.04646073281764984,0.037228766828775406
1744927504043365000,4.466365234375,-0.02950161322951317,-0.0667702704668045,0.07536204159259796
1744927504053324300,4.47632421875,-0.0328839048743248,-0.06124510616064072,0.12391290813684464
1744927504063282200,4.4862822265625,-0.05379504710435867,-0.08454963564872742,0.12744586169719696
1744927504073241300,4.496241455078125,-0.04410865902900696,-0.03846576064825058,0.1146431490778923
1744927504083200300,4.5062001953125,-0.03154919296503067,-0.0679437592625618,0.09233784675598145
1744927504093159200,4.5161591796875,-0.01806671917438507,-0.0742553249001503,0.0771268755197525
1744927504103117300,4.526117431640625,-0.008149372413754463,-0.013876941055059433,0.04078458249568939
1744927504113076200,4.536076171875,-0.003563897218555212,-0.003008965402841568,-0.028518540784716606
1744927504123035100,4.54603515625,0.011899747885763645,0.046061642467975616,-0.10047688335180283
1744927504132994000,4.555994140625,0.029125459492206573,0.08029132336378098,-0.15636946260929108
1744927504142952200,4.5659521484375,0.049659498035907745,0.09404309093952179,-0.15415851771831512
1744927504152911000,4.5759111328125,0.06605254113674164,0.0903206393122673,-0.1391974538564682
1744927504162870300,4.585870361328125,0.07191576063632965,0.08215512335300446,-0.13127881288528442
1744927504172828200,4.595828125,0.047445058822631836,0.07414951175451279,-0.10897532105445862
1744927504182787000,4.605787109375,0.015961701050400734,0.0564219169318676,-0.04715297371149063
1744927504192746200,4.615746337890625,0.0026408566627651453,-0.009300876408815384,0.021338744089007378
1744927504202705200,4.625705078125,-0.00591481477022171,-0.033856820315122604,0.08322181552648544
1744927504212663300,4.635663330078125,-0.04895402863621712,-0.0655173659324646,0.112090103328228
1744927504222622200,4.645622314453125,-0.07426177710294724,-0.06324569135904312,0.1353461593389511
1744927504232581000,4.6555810546875,-0.05591699481010437,-0.10747750848531723,0.15879087150096893
1744927504242540000,4.6655400390625,-0.04351891577243805,-0.10626150667667389,0.17572937905788422
1744927504252498200,4.675498291015625,-0.055859461426734924,-0.07872813940048218,0.14934824407100677
1744927504262457000,4.68545703125,-0.02496040053665638,-0.05364595726132393,0.07468439638614655
1744927504272416300,4.695416259765625,-0.0012426306493580341,-0.021010171622037888,0.009469776414334774
1744927504282375400,4.70537548828125,0.0063284700736403465,0.028001844882965088,-0.03182253614068031
1744927504292333000,4.7153330078125,0.029228191822767258,0.05953766778111458,-0.09779489785432816
1744927504302292200,4.725292236328125,0.051474910229444504,0.08257986605167389,-0.1438382863998413
1744927504312251400,4.73525146484375,0.05401020124554634,0.0909963846206665,-0.16128909587860107
1744927504322210300,4.745210205078125,0.05061813443899155,0.08942725509405136,-0.1772022843360901
1744927504332168400,4.75516845703125,0.04833477735519409,0.09225193411111832,-0.14688387513160706
1744927504342127400,4.76512744140625,0.03199468553066254,0.04505433142185211,-0.08066944032907486
1744927504352086300,4.775086181640625,0.021462921053171158,0.018369868397712708,-0.013042767532169819
1744927504362045200,4.785045166015625,-0.006847810931503773,-0.02343643456697464,0.0499977171421051
1744927504372003300,4.79500341796875,-0.026419956237077713,-0.054347001016139984,0.11027596145868301
1744927504381962200,4.804962158203125,-0.047974251210689545,-0.06029144302010536,0.15854361653327942
1744927504391921400,4.81492138671875,-0.06532210856676102,-0.101986825466156,0.18907871842384338
1744927504401880300,4.82488037109375,-0.049253400415182114,-0.10475943982601166,0.17863565683364868
1744927504411838200,4.834838134765625,-0.051600076258182526,-0.10316602885723114,0.15610316395759583
1744927504421797400,4.84479736328125,-0.0462561771273613,-0.06021616607904434,0.13142390549182892
1744927504431756300,4.85475634765625,-0.015451071783900261,-0.05552777275443077,0.07603220641613007
1744927504441714200,4.864714111328125,0.009495556354522705,-0.012987770140171051,-0.004234663676470518
1744927504451673300,4.87467333984375,0.008416333235800266,0.025372609496116638,-0.07928131520748138
1744927504461632300,4.88463232421875,0.015063849277794361,0.07459288090467453,-0.1429937183856964
1744927504471591200,4.894591064453125,0.04455474019050598,0.10078220069408417,-0.17725996673107147
1744927504481549300,4.90454931640625,0.07049739360809326,0.074250727891922,-0.18409231305122375
1744927504491507700,4.9145078125,0.06979848444461823,0.09659328311681747,-0.1823752075433731
1744927504501466600,4.924466552734375,0.03563731908798218,0.10341017693281174,-0.1547963172197342
1744927504511426000,4.934426025390625,0.024314459413290024,0.07170742750167847,-0.0821828544139862
1744927504521383700,4.9443837890625,0.03986705467104912,0.00881021749228239,-0.010720123536884785
1744927504531342800,4.9543427734375,0.01162943709641695,-0.020393282175064087,0.06111494079232216
1744927504541302000,4.964302001953125,-0.036622513085603714,-0.05377041548490524,0.11846931278705597
1744927504551261000,4.974260986328125,-0.05379710718989372,-0.07682424783706665,0.16146855056285858
1744927504561219000,4.984218994140625,-0.061648640781641006,-0.11535512655973434,0.196272075176239
1744927504571178000,4.994177978515625,-0.06414525210857391,-0.11409993469715118,0.19179180264472961
1744927504581137000,5.004136962890625,-0.06524939835071564,-0.0932023748755455,0.14941026270389557
1744927504591095800,5.014095703125,-0.04903365671634674,-0.06815335899591446,0.0867522582411766
1744927504601054000,5.024053955078125,-0.02224518544971943,-0.03472083434462547,0.03270633518695831
1744927504611012900,5.034012939453125,0.0004889218835160136,0.004066016990691423,-0.006469955667853355
1744927504620972000,5.043971923828125,0.026843830943107605,0.038843438029289246,-0.07889409363269806
1744927504630931000,5.053930908203125,0.051766738295555115,0.073604054749012,-0.14916133880615234
1744927504640888800,5.063888916015625,0.058385755866765976,0.10888401418924332,-0.19005736708641052
1744927504650848000,5.073847900390625,0.06133298948407173,0.10988187044858932,-0.1826711893081665
1744927504660807000,5.083806884765625,0.07219521701335907,0.10756412148475647,-0.1395687311887741
1744927504670764800,5.093764892578125,0.059691812843084335,0.07581782341003418,-0.09820356220006943
1744927504680724000,5.103723876953125,0.03852101415395737,0.050519656389951706,-0.057320043444633484
1744927504690683000,5.113682861328125,0.010118680074810982,0.014042618684470654,-0.0033775789197534323
1744927504700641800,5.123641845703125,-0.025595640763640404,-0.03559817001223564,0.07667171955108643
1744927504710600000,5.133599853515625,-0.04166150838136673,-0.07528381794691086,0.13578887283802032
1744927504720558800,5.143558837890625,-0.05429394543170929,-0.10891102254390717,0.14630062878131866
1744927504730517800,5.153517822265625,-0.07634291052818298,-0.11129142343997955,0.137658953666687
1744927504740477000,5.163476806640625,-0.08366047590970993,-0.10112427175045013,0.118837870657444
1744927504750434800,5.173434814453125,-0.0609598234295845,-0.06735121458768845,0.09801503270864487
1744927504760394000,5.18339404296875,-0.037502434104681015,-0.0729566365480423,0.07152723520994186
1744927504770353000,5.193352783203125,-0.013935658149421215,-0.024523861706256866,0.013025477528572083
1744927504780311800,5.203311767578125,0.010643187910318375,0.047563910484313965,-0.05563747137784958
1744927504790270000,5.21327001953125,0.04036379233002663,0.07498566806316376,-0.08988319337368011
1744927504800228900,5.223228759765625,0.08783596754074097,0.08344253897666931,-0.11820670962333679
1744927504810187800,5.233187744140625,0.0954667180776596,0.11922876536846161,-0.13240455090999603
1744927504820146700,5.243146728515625,0.06385233253240585,0.12727896869182587,-0.11856251209974289
1744927504830104800,5.253104736328125,0.06595686823129654,0.1144401803612709,-0.11639846116304398
1744927504840063700,5.263063720703125,0.0667257234454155,0.04829444736242294,-0.09825620800256729
1744927504850023000,5.27302294921875,0.02335583232343197,0.014417294412851334,-0.03878973051905632
1744927504859981800,5.28298193359375,-0.027637576684355736,-0.0041308230720460415,0.012792767025530338
1744927504869939700,5.292939697265625,-0.056981161236763,-0.06602926552295685,0.05978778004646301
1744927504879899000,5.30289892578125,-0.06344571709632874,-0.09965647011995316,0.10031203925609589
1744927504889857800,5.31285791015625,-0.07699630409479141,-0.11694086343050003,0.10776659846305847
1744927504899815700,5.322815673828125,-0.09582698345184326,-0.09536153078079224,0.12339083105325699
1744927504909774800,5.33277490234375,-0.07226091623306274,-0.09253296256065369,0.1204238086938858
1744927504919733800,5.342733642578125,-0.02872169390320778,-0.07765813916921616,0.09018787741661072
1744927504929692700,5.352692626953125,-0.01624143309891224,-0.04269834980368614,0.05972040817141533
1744927504939650800,5.36265087890625,-0.002113895956426859,0.028646934777498245,0.02970152162015438
1744927504949609700,5.372609619140625,0.03934644162654877,0.05164410173892975,-0.008964653126895428
1744927504959569000,5.38256884765625,0.08373041450977325,0.06312312185764313,-0.04623905196785927
1744927504969528000,5.392528076171875,0.08119798451662064,0.09644366055727005,-0.09074145555496216
1744927504979485700,5.402485595703125,0.06041041389107704,0.12133196741342545,-0.1206817775964737
1744927504989444900,5.41244482421875,0.06009073182940483,0.10011904686689377,-0.12233131378889084
1744927504999404000,5.422404052734375,0.06401543319225311,0.049255866557359695,-0.12121624499559402
1744927505009363000,5.432363037109375,0.02784196101129055,0.025776077061891556,-0.08620873093605042
1744927505019321000,5.442321044921875,-0.03028738871216774,0.012231506407260895,-0.048551369458436966
1744927505029280000,5.452280029296875,-0.04800917208194733,-0.03264050930738449,-0.02337123267352581
1744927505039239000,5.462239013671875,-0.054263073951005936,-0.07600902020931244,0.03419911861419678
1744927505049197800,5.47219775390625,-0.06315706670284271,-0.10692836344242096,0.08032882213592529
1744927505059156000,5.482156005859375,-0.0720464289188385,-0.08932087570428848,0.10357236117124557
1744927505069115000,5.492114990234375,-0.06875813752412796,-0.08045411854982376,0.12070377916097641
1744927505079073800,5.50207373046875,-0.03602149337530136,-0.0756969153881073,0.107957623898983
1744927505089033000,5.512032958984375,-0.010467900894582272,-0.03034883178770542,0.0883457213640213
1744927505098990800,5.521990966796875,0.0012662529479712248,-0.000048183370381593704,0.07128524780273438
1744927505108950000,5.531949951171875,0.031328968703746796,0.030870525166392326,0.031637322157621384
1744927505118909000,5.541908935546875,0.05976780131459236,0.04298098385334015,-0.022280503064393997
1744927505128867800,5.551867919921875,0.05920270457863808,0.08138921111822128,-0.04895654320716858
1744927505138826000,5.561825927734375,0.047386523336172104,0.08883754163980484,-0.07890965044498444
1744927505148785000,5.571784912109375,0.06309200078248978,0.07864192873239517,-0.10292363166809082
1744927505158743800,5.581743896484375,0.053215142339468,0.06206081807613373,-0.11033280938863754
1744927505168702000,5.591701904296875,0.020159807056188583,0.04701957851648331,-0.10446443408727646
1744927505178660900,5.601660888671875,-0.002567608840763569,0.04243361949920654,-0.08697065711021423
1744927505188619800,5.611619873046875,-0.016134971752762794,-0.017600364983081818,-0.05480276420712471
1744927505198579000,5.621578857421875,-0.032087042927742004,-0.03783905878663063,-0.011483254842460155
1744927505208536800,5.631536865234375,-0.05327330902218819,-0.05673447996377945,0.025463571771979332
1744927505218495700,5.641495849609375,-0.05769016221165657,-0.07351265847682953,0.06495852023363113
1744927505228455000,5.651454833984375,-0.050934210419654846,-0.07320927083492279,0.0860382467508316
1744927505238413800,5.661413818359375,-0.04380333051085472,-0.0675862729549408,0.08870886266231537
1744927505248371700,5.671371826171875,-0.034805960953235626,-0.03789236769080162,0.08822978287935257
1744927505258331000,5.681330810546875,-0.006665403954684734,-0.02506818063557148,0.07410677522420883
1744927505268289800,5.691289794921875,0.017362168058753014,-0.0002858685329556465,0.05061716213822365
1744927505278248700,5.701248779296875,0.030431099236011505,0.03286196291446686,0.010587453842163086
1744927505288206800,5.711206787109375,0.04296550154685974,0.05533980205655098,-0.026594145223498344
1744927505298165800,5.721165771484375,0.0572831854224205,0.07140398770570755,-0.05721650272607803
1744927505308124700,5.731124755859375,0.06266236305236816,0.07324536889791489,-0.0782240703701973
1744927505318083800,5.741083740234375,0.04844161123037338,0.07086450606584549,-0.08854647725820541
1744927505328041700,5.751041748046875,0.03079855814576149,0.05076197162270546,-0.08600052446126938
1744927505338001000,5.7610009765625,0.01275111548602581,0.02740604802966118,-0.0753641277551651
1744927505347959800,5.770959716796875,-0.01337657030671835,-0.00521191768348217,-0.04702151194214821
1744927505357919000,5.7809189453125,-0.030770206823945045,-0.027754243463277817,-0.019000263884663582
1744927505367876900,5.790876953125,-0.0337749645113945,-0.04942169412970543,0.009453581646084785
1744927505377835800,5.800835693359375,-0.049080681055784225,-0.06770402938127518,0.03860081359744072
1744927505387795000,5.810794921875,-0.058419421315193176,-0.06659512966871262,0.05751461163163185
1744927505397752800,5.8207529296875,-0.048655472695827484,-0.0607425719499588,0.08031207323074341
1744927505407711700,5.830711669921875,-0.03673430159687996,-0.07603053003549576,0.08894582837820053
1744927505417671000,5.8406708984375,-0.021560408174991608,-0.037143319845199585,0.07698903977870941
1744927505427629800,5.8506298828125,-0.020005254074931145,-0.011808492243289948,0.05362847074866295
1744927505437588000,5.860587890625,0.011983569711446762,0.021317236125469208,0.03135459125041962
1744927505447547000,5.870546875,0.050295017659664154,0.029587430879473686,0.013381053693592548
1744927505457506000,5.880506103515625,0.0544668585062027,0.05314282327890396,-0.011167965829372406
1744927505467465000,5.89046484375,0.04976985231041908,0.07822155952453613,-0.040613070130348206
1744927505477422800,5.9004228515625,0.046170856803655624,0.05793759599328041,-0.06274659931659698
1744927505487383000,5.910383056640625,0.03973928093910217,0.046091172844171524,-0.07435590028762817
1744927505497342200,5.92034228515625,0.012137477286159992,0.037961073219776154,-0.07765688747167587
1744927505507301000,5.930301025390625,-0.01111969631165266,0.019096944481134415,-0.05033544450998306
1744927505517259000,5.940259033203125,-0.013584718108177185,-0.024665452539920807,-0.02498587779700756
1744927505527218200,5.95021826171875,-0.022852439433336258,-0.03790134936571121,-0.01399930752813816
1744927505537177000,5.960177001953125,-0.05065451189875603,-0.03176036477088928,0.022741395980119705
1744927505547136000,5.970135986328125,-0.056784022599458694,-0.04379427433013916,0.0546378530561924
1744927505557094100,5.98009423828125,-0.026928389444947243,-0.081079863011837,0.07959060370922089
1744927505567053000,5.990052978515625,-0.017696749418973923,-0.07153607904911041,0.09934182465076447
1744927505577012000,6.000011962890625,-0.034869611263275146,-0.031097842380404472,0.10670572519302368
1744927505586971100,6.00997119140625,-0.014524336904287338,0.0006751623004674911,0.07271306216716766
1744927505596929000,6.019928955078125,0.02609366364777088,-0.00658008735626936,0.04592166468501091
1744927505606888000,6.029887939453125,0.04518244415521622,0.014008427038788795,0.02125524915754795
1744927505616847000,6.03984716796875,0.030926814302802086,0.059488024562597275,-0.028534144163131714
1744927505626806300,6.04980615234375,0.031276166439056396,0.09211691468954086,-0.07722783088684082
1744927505636764200,6.05976416015625,0.05309677496552467,0.057105403393507004,-0.10454867035150528
1744927505646723300,6.069723388671875,0.06011516973376274,0.03127003088593483,-0.11438129842281342
1744927505656682200,6.07968212890625,0.015131182037293911,0.061076659709215164,-0.09639111161231995
1744927505666641200,6.08964111328125,-0.009307481348514557,0.03915756195783615,-0.07595590502023697
1744927505676599300,6.099599365234375,0.005685316864401102,-0.011327718384563923,-0.07967421412467957
1744927505686558200,6.10955810546875,-0.013428913429379463,-0.03690479323267937,-0.039051759988069534
1744927505696517000,6.11951708984375,-0.05946218594908714,-0.04456644132733345,0.023902172222733498
1744927505706475300,6.129475341796875,-0.06457079946994781,-0.043694887310266495,0.07841123640537262
1744927505716434200,6.13943408203125,-0.042201850563287735,-0.10604561120271683,0.11798980832099915
1744927505726393300,6.149393310546875,-0.025744467973709106,-0.06775569170713425,0.1135038211941719
1744927505736352300,6.159352294921875,-0.038743358105421066,-0.031055735424160957,0.09769636392593384
1744927505746310100,6.16931005859375,-0.01718239299952984,-0.007067563943564892,0.09418538212776184
1744927505756269300,6.179269287109375,0.03065490536391735,-0.015825368463993073,0.07659733295440674
1744927505766228200,6.189228271484375,0.04139932617545128,0.0003445013426244259,0.03519000485539436
1744927505776187100,6.199187255859375,0.021658645942807198,0.06841330230236053,-0.009352964349091053
1744927505786145300,6.209145263671875,0.02194572240114212,0.06735894083976746,-0.05710304528474808
1744927505796104200,6.219104248046875,0.06213149428367615,0.05737821012735367,-0.0825335681438446
1744927505806063000,6.22906298828125,0.06392567604780197,0.043437376618385315,-0.0765911266207695
1744927505816022300,6.239022216796875,0.0222658459097147,0.050175175070762634,-0.08348657935857773
1744927505825980200,6.248980224609375,0.0010690485360100865,0.06553952395915985,-0.09704103320837021
1744927505835939000,6.25893896484375,0.0011494759237393737,-0.003020357806235552,-0.07785642147064209
1744927505845898200,6.268898193359375,-0.0075488099828362465,-0.030421003699302673,-0.03495917469263077
1744927505855857200,6.278857177734375,-0.03630828857421875,-0.03805708512663841,-0.003945596516132355
1744927505865815000,6.28881494140625,-0.06445377320051193,-0.04785921424627304,0.02090970240533352
1744927505875774200,6.298774169921875,-0.054207269102334976,-0.05449661239981651,0.03138444572687149
1744927505885733000,6.308733154296875,-0.034423500299453735,-0.07819811254739761,0.053398214280605316
1744927505895692000,6.318692138671875,-0.034169964492321014,-0.052746810019016266,0.07735228538513184
1744927505905650200,6.328650146484375,-0.030358869582414627,-0.02108842507004738,0.08020037412643433
1744927505915609000,6.338609130859375,-0.0027701198123395443,-0.010372931137681007,0.06708750128746033
1744927505925568000,6.348568115234375,0.02910681813955307,0.007880241610109806,0.043998781591653824
1744927505935527200,6.358527099609375,0.0393192432820797,0.03240875527262688,0.027517810463905334
1744927505945485000,6.368485107421875,0.04368047043681145,0.06597030907869339,0.010314236395061016
1744927505955444200,6.3784443359375,0.05530862882733345,0.06228049844503403,-0.019370421767234802
1744927505965403100,6.388403076171875,0.061235591769218445,0.055156055837869644,-0.050079625099897385
1744927505975361000,6.398361083984375,0.03876011073589325,0.05175573378801346,-0.06799764186143875
1744927505985320200,6.4083203125,0.012080918066203594,0.03836050257086754,-0.0740344300866127
1744927505995279000,6.418279052734375,-0.005144141614437103,0.015380618162453175,-0.06941784173250198
1744927506005238000,6.428238037109375,-0.016205456107854843,-0.026169322431087494,-0.06141236424446106
1744927506015196200,6.438196044921875,-0.03852088376879692,-0.031532131135463715,-0.04599399119615555
1744927506025155000,6.448155029296875,-0.06082764267921448,-0.04264140501618385,-0.008143299259245396
1744927506035114000,6.458114013671875,-0.05319928377866745,-0.06455469131469727,0.019864631816744804
1744927506045073200,6.4680732421875,-0.034103620797395706,-0.0657254159450531,0.04505440592765808
1744927506055031000,6.478031005859375,-0.03804297000169754,-0.058898940682411194,0.06532346457242966
1744927506064990000,6.487989990234375,-0.031169626861810684,-0.01332454290241003,0.06080660596489906
1744927506074949400,6.497949462890625,-0.0040613096207380295,-0.008285841904580593,0.059072885662317276
1744927506084908300,6.507908203125,0.031168881803750992,-0.005179130472242832,0.05793696269392967
1744927506094866000,6.517865966796875,0.04296721890568733,0.027378015220165253,0.041413646191358566
1744927506104825300,6.527825439453125,0.040103211998939514,0.052666179835796356,0.023897185921669006
1744927506114784300,6.5377841796875,0.039805203676223755,0.06002875044941902,0.0019103935919702053
1744927506124743200,6.5477431640625,0.04579055681824684,0.048020247370004654,-0.02594943903386593
1744927506134701300,6.557701416015625,0.041296739131212234,0.03312332183122635,-0.04388875886797905
1744927506144660200,6.56766015625,0.015191057696938515,0.028532419353723526,-0.054765425622463226
1744927506154619100,6.577619140625,-0.0030854172073304653,0.0239696241915226,-0.05912475287914276
1744927506164578300,6.587578369140625,-0.006125148851424456,-0.005432206206023693,-0.04945028945803642
1744927506174536200,6.5975361328125,-0.01398999709635973,-0.02872314676642418,-0.037418659776449203
1744927506184495000,6.6074951171875,-0.03718198835849762,-0.03281782940030098,-0.03227953240275383
1744927506194454300,6.617454345703125,-0.054850198328495026,-0.033035144209861755,-0.017805520445108414
1744927506204413200,6.6274130859375,-0.04648119583725929,-0.052702561020851135,-0.0008014969644136727
1744927506214371300,6.637371337890625,-0.028790881857275963,-0.05130520090460777,0.029871460050344467
1744927506224330200,6.647330322265625,-0.021255532279610634,-0.032928500324487686,0.052860077470541
1744927506234289200,6.6572890625,-0.011317414231598377,-0.011794719845056534,0.05392560735344887
1744927506244247300,6.667247314453125,0.002302967943251133,0.004060204140841961,0.04944317787885666
1744927506254206200,6.677206298828125,0.022858310490846634,0.011888831853866577,0.042424947023391724
1744927506264165000,6.6871650390625,0.03472273424267769,0.029767755419015884,0.04040122777223587
1744927506274124000,6.6971240234375,0.036924105137586594,0.0354410856962204,0.02871260978281498
1744927506284082200,6.707082275390625,0.03631476312875748,0.037866946309804916,0.006687600631266832
1744927506294041000,6.717041015625,0.035470541566610336,0.04461140185594559,-0.025625597685575485
1744927506304000300,6.727000244140625,0.025725236162543297,0.03691087290644646,-0.04086340591311455
1744927506313959200,6.736959228515625,0.013779095374047756,0.03067667782306671,-0.042707379907369614
1744927506323917000,6.7469169921875,0.004913975019007921,0.009137045592069626,-0.04804554954171181
1744927506333876200,6.756876220703125,-0.009782679378986359,-0.007647793740034103,-0.05047168955206871
1744927506343835100,6.766835205078125,-0.03092104382812977,-0.017201513051986694,-0.03828418627381325
1744927506353794000,6.7767939453125,-0.034751199185848236,-0.03210962191224098,-0.024372365325689316
1744927506363752200,6.786752197265625,-0.030512157827615738,-0.04558678716421127,0.0024484312161803246
1744927506373711000,6.796711181640625,-0.03087701089680195,-0.03990226984024048,0.016252392902970314
1744927506383670000,6.806669921875,-0.030992930755019188,-0.02860993705689907,0.020293647423386574
1744927506393629200,6.816629150390625,-0.020565057173371315,-0.015822768211364746,0.03273433446884155
1744927506403587000,6.826587158203125,0.0008215960115194321,-0.014549597166478634,0.039821162819862366
1744927506413546000,6.8365458984375,0.015295077115297318,0.0014269724488258362,0.03652283549308777
1744927506423505200,6.846505126953125,0.019285567104816437,0.022456370294094086,0.03463239222764969
1744927506433464000,6.856464111328125,0.026385821402072906,0.02994544431567192,0.02339678257703781
1744927506443422000,6.866421875,0.044698506593704224,0.03772532194852829,0.004741470329463482
1744927506453381000,6.876381103515625,0.04131682589650154,0.032456524670124054,-0.00997968576848507
1744927506463340000,6.886340087890625,0.023944923654198647,0.03550713509321213,-0.018747316673398018
1744927506473299200,6.89629931640625,0.014079776592552662,0.026527753099799156,-0.034798454493284225
1744927506483257000,6.906257080078125,0.005638555623590946,0.0019865473732352257,-0.042161352932453156
1744927506493214700,6.916214599609375,-0.0115143321454525,-0.010358269326388836,-0.03672824054956436
1744927506503174000,6.926173828125,-0.02595391683280468,-0.0196975190192461,-0.035599928349256516
1744927506513131800,6.9361318359375,-0.030243469402194023,-0.018028249964118004,-0.029323656111955643
1744927506523091000,6.946091064453125,-0.02965589612722397,-0.030979715287685394,-0.012857899069786072
1744927506533049900,6.9560498046875,-0.02707742340862751,-0.03197121247649193,0.002362065715715289
1744927506543008800,6.9660087890625,-0.024939727038145065,-0.027976231649518013,0.013814451172947884
1744927506552967000,6.975966796875,-0.018308987841010094,-0.01736326888203621,0.031703971326351166
1744927506562925800,6.98592578125,-0.0025006525684148073,-0.011619438417255878,0.03149803355336189
1744927506572884700,6.995884765625,0.01214007567614317,0.0009536109864711761,0.029452459886670113
1744927506582844000,7.005843994140625,0.02011263556778431,0.015145402401685715,0.029347509145736694
1744927506592801800,7.0158017578125,0.025800082832574844,0.035791561007499695,0.02817784808576107
1744927506602760700,7.0257607421875,0.032947707921266556,0.026760736480355263,0.019476359710097313
1744927506612719900,7.035719970703125,0.033727481961250305,0.030040686950087547,0.0036902064457535744
1744927506622678800,7.0456787109375,0.024091055616736412,0.03162751719355583,-0.007078602444380522
1744927506632636700,7.05563671875,0.013416839763522148,0.022261179983615875,-0.01659088023006916
1744927506642595800,7.065595947265625,0.004841149784624577,0.004460994619876146,-0.023474670946598053
1744927506652554800,7.0755546875,-0.00489909527823329,-0.00738847441971302,-0.030477719381451607
1744927506662513700,7.085513671875,-0.016915811225771904,-0.00991714559495449,-0.031903576105833054
1744927506672471800,7.095471923828125,-0.027224374935030937,-0.02103957161307335,-0.035036515444517136
1744927506682430700,7.1054306640625,-0.027224108576774597,-0.02644951641559601,-0.028240131214261055
1744927506692389600,7.1153896484375,-0.028035040944814682,-0.03321767598390579,-0.016430076211690903
1744927506702348800,7.125348876953125,-0.026911120861768723,-0.027244027704000473,-0.006922002416104078
1744927506712306700,7.135306640625,-0.021807972341775894,-0.018273968249559402,0.0015958521980792284
1744927506722265600,7.145265625,-0.006374009419232607,-0.013068626634776592,0.011955305002629757
1744927506732224800,7.155224853515625,0.008084025233983994,0.0015433388762176037,0.021050266921520233
1744927506742183700,7.16518359375,0.014067515730857849,0.013507812283933163,0.03170080855488777
1744927506752141800,7.175141845703125,0.022814933210611343,0.027642805129289627,0.03764418512582779
1744927506762100700,7.185100830078125,0.0339382141828537,0.024377133697271347,0.03437294438481331
1744927506772059600,7.1950595703125,0.03321250155568123,0.023900162428617477,0.027173887938261032
1744927506782018600,7.2050185546875,0.023656582459807396,0.0253266841173172,0.012008697725832462
1744927506791976700,7.214976806640625,0.013982650823891163,0.018428299576044083,-0.0011846020352095366
1744927506801935600,7.224935546875,0.005884687416255474,0.010052359662950039,-0.010396311990916729
1744927506811894500,7.23489453125,-0.005372760817408562,-0.0035910140722990036,-0.018886735662817955
1744927506821852700,7.244852783203125,-0.013567040674388409,-0.007939423434436321,-0.030911173671483994
1744927506831811600,7.2548115234375,-0.025986427441239357,-0.0131355170160532,-0.03436076641082764
1744927506841770800,7.264770751953125,-0.024889569729566574,-0.025198083370923996,-0.02569907158613205
1744927506851729700,7.274729736328125,-0.020751286298036575,-0.028462320566177368,-0.014253871515393257
1744927506861687600,7.2846875,-0.023362258449196815,-0.019938888028264046,-0.006437896750867367
1744927506871646700,7.294646728515625,-0.01785004697740078,-0.014458367601037025,0.0011089693289250135
1744927506881605600,7.304605712890625,-0.005659095942974091,-0.00882028043270111,0.007448148913681507
1744927506891564800,7.314564697265625,0.005941367708146572,0.00019691698253154755,0.016313279047608376
1744927506901522700,7.324522705078125,0.010623382404446602,0.005748071242123842,0.02617969550192356
1744927506911481900,7.33448193359375,0.013728628866374493,0.01883963868021965,0.024442780762910843
1744927506921440800,7.344440673828125,0.021310070529580116,0.01972392573952675,0.017057785764336586
1744927506931400000,7.35439990234375,0.024440350010991096,0.02010529115796089,0.009816649369895458
1744927506941357800,7.36435791015625,0.01794087328016758,0.018577568233013153,0.002482656156644225
1744927506951316700,7.374316650390625,0.011388431303203106,0.017511503770947456,-0.0006372369825839996
1744927506961276000,7.38427587890625,0.006571113597601652,0.011463388800621033,-0.004958022385835648
1744927506971234800,7.39423486328125,0.0024701119400560856,-0.000867579597979784,-0.018904730677604675
1744927506981192700,7.404192626953125,-0.010368751361966133,-0.004952643532305956,-0.02578062191605568
1744927506991151900,7.41415185546875,-0.01745755411684513,-0.008177198469638824,-0.027908487245440483
1744927507001110800,7.42411083984375,-0.01773308962583542,-0.017951222136616707,-0.02567305788397789
1744927507011069700,7.434069580078125,-0.017901135608553886,-0.020100392401218414,-0.021776320412755013
1744927507021027800,7.44402783203125,-0.020946459844708443,-0.01563001051545143,-0.01724814809858799
1744927507030986800,7.45398681640625,-0.013439541682600975,-0.007959308102726936,-0.0032705485355108976
1744927507040945700,7.463945556640625,-0.00436627771705389,-0.011063387617468834,0.014016013592481613
1744927507050904800,7.47390478515625,0.0066349743865430355,-0.000720735639333725,0.016575578600168228
1744927507060862700,7.48386279296875,0.008558211848139763,0.0062360214069485664,0.019556788727641106
1744927507070822000,7.49382177734375,0.013409426435828209,0.010720784775912762,0.018529340624809265
1744927507080780800,7.50378076171875,0.01987362839281559,0.015886489301919937,0.023263804614543915
1744927507090739700,7.51373974609375,0.021549822762608528,0.016220182180404663,0.031039969995617867
1744927507100697900,7.52369775390625,0.02009819820523262,0.009215712547302246,0.027279376983642578
1744927507110656800,7.53365673828125,0.010969415307044983,0.01137127447873354,0.009862570092082024
1744927507120615700,7.54361572265625,-0.0012806373415514827,0.007569288834929466,0.0002924887230619788
1744927507130574600,7.55357470703125,-0.005724654532968998,-0.005287121515721083,-0.006829336751252413
1744927507140532700,7.56353271484375,-0.009894131682813168,-0.012723066844046116,-0.01748162880539894
1744927507150491600,7.57349169921875,-0.015102742239832878,-0.014719905331730843,-0.021533362567424774
1744927507160450800,7.583450927734375,-0.023500798270106316,-0.010875247418880463,-0.03066219575703144
1744927507170408700,7.59340869140625,-0.02033216878771782,-0.013024418614804745,-0.03322974964976311
1744927507180367600,7.60336767578125,-0.01239435188472271,-0.010880307294428349,-0.02272357977926731
1744927507190326800,7.613326904296875,-0.008325573988258839,-0.006179295480251312,-0.015606014989316463
1744927507200285700,7.62328564453125,-0.0017186596523970366,0.0033715255558490753,-0.008584835566580296
1744927507210243600,7.63324365234375,0.005156024359166622,0.007179313339293003,0.002244110219180584
1744927507220202800,7.64320263671875,0.018879959359765053,0.0054321009665727615,0.014152814634144306
1744927507230161700,7.65316162109375,0.016229581087827682,0.01402505673468113,0.02136651985347271
1744927507240120600,7.66312060546875,0.011203852482140064,0.012899412773549557,0.027491595596075058
1744927507250078700,7.67307861328125,0.015682488679885864,0.01650187000632286,0.022782061249017715
1744927507260037600,7.68303759765625,0.01462581381201744,0.004589995369315147,0.01705712266266346
1744927507269996500,7.69299658203125,0.005392368882894516,-0.0012183592189103365,0.014795033261179924
1744927507279955700,7.702955810546875,-0.0033348766155540943,0.0002363491803407669,0.0072446479462087154
1744927507289913600,7.71291357421875,-0.010087854228913784,-0.00466519920155406,-0.00001885724486783147
1744927507299872500,7.72287255859375,-0.00969003327190876,-0.010823123157024384,-0.01201418787240982
1744927507309831700,7.732831787109375,-0.015180938877165318,-0.014573918655514717,-0.01887901872396469
1744927507319790800,7.742790771484375,-0.016017772257328033,-0.009342141449451447,-0.024175075814127922
1744927507329748700,7.752748779296875,-0.012707462534308434,-0.011330191045999527,-0.017214903607964516
1744927507339708000,7.7627080078125,-0.007107499521225691,-0.010067407041788101,-0.018082143738865852
1744927507349666800,7.772666748046875,-0.0023601483553647995,0.0033192383125424385,-0.01975966989994049
1744927507359625700,7.782625732421875,0.0015746825374662876,0.0065214368514716625,-0.011255260556936264
1744927507369583900,7.792583984375,0.007939371280372143,0.009314827620983124,-0.0015107537619769573
1744927507379542800,7.802542724609375,0.013073291629552841,0.012607219628989697,0.004206009674817324
1744927507389501700,7.812501708984375,0.012152637355029583,0.013088186271488667,0.013561694882810116
1744927507399460900,7.8224609375,0.014658981934189796,0.011006275191903114,0.01855197735130787
1744927507409418800,7.832418701171875,0.012737777084112167,0.009159373119473457,0.018601246178150177
1744927507419378000,7.8423779296875,0.010488036088645458,0.005489489994943142,0.023455055430531502
1744927507429336800,7.8523369140625,0.004378211684525013,-0.00037958472967147827,0.01675534062087536
1744927507439295700,7.862295654296875,-0.000698014278896153,-0.00409031193703413,0.010935580357909203
1744927507449254000,7.87225390625,-0.007127151358872652,-0.005411239806562662,0.0008869408629834652
1744927507459212800,7.882212890625,-0.014712155796587467,-0.01141603197902441,-0.0108450036495924
1744927507469171700,7.892171630859375,-0.015316693112254143,-0.010404829867184162,-0.018140200525522232
1744927507479129900,7.9021298828125,-0.016244683414697647,-0.01523306779563427,-0.01955915428698063
1744927507489089500,7.912089599609375,-0.011645937338471413,-0.010347232222557068,-0.01993146352469921
1744927507499048400,7.92204833984375,-0.009905029088258743,-0.004184943623840809,-0.020306169986724854
1744927507509007400,7.93200732421875,-0.000879842322319746,0.0009584194049239159,-0.017542341724038124
1744927507518965500,7.941965576171875,0.006499755661934614,0.007115086540579796,-0.012320956215262413
1744927507528924400,7.95192431640625,0.01097599696367979,0.011681875213980675,-0.0019386222120374441
1744927507538883300,7.96188330078125,0.011555733159184456,0.013493755832314491,0.00830824114382267
1744927507548842500,7.971842529296875,0.017875680699944496,0.013515060767531395,0.011366616003215313
1744927507558800400,7.98180029296875,0.014431790448725224,0.0113108204677701,0.016174262389540672
1744927507568759600,7.991759521484375,0.010401362553238869,0.009112115018069744,0.015090888366103172
1744927507578718500,8.001718505859374,0.004926647525280714,0.00465435441583395,0.018148809671401978
1744927507588677400,8.011677490234375,0.0015705320984125137,-0.004699466284364462,0.016251573339104652
1744927507598635500,8.021635498046875,-0.00448319036513567,-0.008771738037467003,0.011434079147875309
1744927507608594400,8.031594482421875,-0.010610058903694153,-0.009547783061861992,0.0023955772630870342
1744927507618553300,8.04155322265625,-0.014422116801142693,-0.010100934654474258,-0.004946627654135227
1744927507628512300,8.05151220703125,-0.010191685520112514,-0.014663727954030037,-0.009010877460241318
1744927507638470400,8.061470458984376,-0.013775089755654335,-0.011883195489645004,-0.00950833410024643
1744927507648429300,8.07142919921875,-0.008671673946082592,-0.005144066177308559,-0.013710802420973778
1744927507658388500,8.081388427734375,-0.004090870730578899,-0.0008159414865076542,-0.019346555694937706
1744927507668347600,8.09134765625,-0.0019094756571576,0.0018650628626346588,-0.01558271050453186
1744927507678305300,8.10130517578125,0.003946559503674507,0.008426663465797901,-0.00783273670822382
1744927507688264400,8.111264404296875,0.00989393051713705,0.012513017281889915,-0.005461724009364843
1744927507698223600,8.1212236328125,0.01390815805643797,0.014966913498938084,0.0010292107472196221
1744927507708182500,8.1311826171875,0.01493826974183321,0.014793007634580135,0.005462308414280415
1744927507718140700,8.141140625,0.014690440148115158,0.014438599348068237,0.0032093822956085205
1744927507728099600,8.151099609375,0.007237316574901342,0.008690966293215752,0.01201965194195509
1744927507738058500,8.16105859375,0.0050112358294427395,-0.00015030009672045708,0.014666222035884857
1744927507748017700,8.171017578125,0.001519831595942378,-0.005355714354664087,0.014022269286215305
1744927507757975600,8.1809755859375,-0.006679931189864874,-0.009524302557110786,0.009815914556384087
1744927507767934500,8.1909345703125,-0.012238213792443275,-0.011377062648534775,0.003240835852921009
1744927507777893600,8.2008935546875,-0.013528225012123585,-0.013462197035551071,0.002015027217566967
1744927507787852500,8.2108525390625,-0.008398178033530712,-0.016478760167956352,0.0010184724815189838
1744927507797810400,8.220810546875,-0.009355608373880386,-0.011381058022379875,-0.005889545660465956
1744927507807769600,8.23076953125,-0.010856566950678825,-0.005535152740776539,-0.012963433749973774
1744927507817728500,8.240728515625,-0.005013113841414452,-0.00032910192385315895,-0.014149259775876999
1744927507827687400,8.2506875,0.00200777780264616,0.0030911960639059544,-0.01813787780702114
1744927507837645600,8.2606455078125,0.005352986976504326,0.0068282498978078365,-0.016581084579229355
1744927507847604500,8.2706044921875,0.008280600421130657,0.01884070411324501,-0.010286170057952404
1744927507857563400,8.2805634765625,0.010362626053392887,0.015960361808538437,-0.010939890518784523
1744927507867521500,8.290521484375,0.01570652425289154,0.014665531925857067,-0.0011351973516866565
1744927507877480400,8.30048046875,0.013441651128232479,0.011176984757184982,0.0023967092856764793
1744927507887439600,8.310439697265625,0.008880188688635826,0.009040863253176212,0.008997886441648006
1744927507897398500,8.3203984375,0.004899728111922741,-0.0008467000443488359,0.012434723787009716
1744927507907356400,8.3303564453125,-0.00048172110109589994,-0.0034986757673323154,0.012569479644298553
1744927507917315600,8.340315673828124,-0.006592267192900181,-0.007886575534939766,0.01380884274840355
1744927507927274500,8.3502744140625,-0.011216847226023674,-0.014003057964146137,0.011542758904397488
1744927507937233400,8.3602333984375,-0.01622430980205536,-0.015913592651486397,0.005143680609762669
1744927507947191600,8.370191650390625,-0.015225358307361603,-0.01373805571347475,0.00025385041953995824
1744927507957150500,8.380150390625,-0.01221937034279108,-0.01218124758452177,-0.005935941822826862
1744927507967109400,8.390109375,-0.009657942689955235,-0.00977002177387476,-0.011844164691865444
1744927507977068500,8.400068603515624,-0.0045280721969902515,0.00005174707621335983,-0.011642195284366608
1744927507987026400,8.4100263671875,0.000175868917722255,0.005009754560887814,-0.012388412840664387
1744927507996985300,8.4199853515625,0.0071759638376533985,0.0104328952729702,-0.015814879909157753
1744927508006944500,8.429944580078125,0.011541683226823807,0.01615762524306774,-0.0092672323808074
1744927508016903400,8.4399033203125,0.0164782851934433,0.016174625605344772,-0.005745972506701946
1744927508026861300,8.449861328125,0.017001859843730927,0.012830226682126522,0.0009468175703659654
1744927508036820500,8.459820556640626,0.012526685371994972,0.010498628951609135,0.005159938707947731
1744927508046779400,8.469779296875,0.007195835933089256,0.0095412228256464,0.011360043659806252
1744927508056738300,8.47973828125,0.0026617632247507572,-0.0007514175958931446,0.016594739630818367
1744927508066696400,8.489696533203125,-0.002637128345668316,-0.007616514340043068,0.012668974697589874
1744927508076655400,8.4996552734375,-0.009670293889939785,-0.013087566010653973,0.01649775542318821
1744927508086614300,8.5096142578125,-0.014028556644916534,-0.017002146691083908,0.009834527969360352
1744927508096573700,8.51957373046875,-0.016531983390450478,-0.01940155029296875,0.007524315267801285
1744927508106531300,8.52953125,-0.016157276928424835,-0.017459306865930557,-0.000568232499063015
1744927508116490500,8.539490478515624,-0.015124080702662468,-0.01690063625574112,-0.0023294887505471706
1744927508126449700,8.54944970703125,-0.008529827930033207,-0.005703374743461609,-0.008899507112801075
1744927508136408600,8.55940869140625,-0.005453576799482107,0.00011203810572624207,-0.014161732979118824
1744927508146366700,8.56936669921875,0.003219539998099208,0.005807207897305489,-0.015944186598062515
1744927508156325600,8.57932568359375,0.009104970842599869,0.01582341641187668,-0.014341387897729874
1744927508166284500,8.589284423828126,0.015425450168550014,0.015991728752851486,-0.009747435338795185
1744927508176242700,8.59924267578125,0.017507631331682205,0.022169269621372223,-0.0056062424555420876
1744927508186201600,8.60920166015625,0.014752591960132122,0.016089538112282753,0.0021930914372205734
1744927508196160500,8.619160400390625,0.011513177305459976,0.010449126362800598,0.00955398939549923
1744927508206119400,8.629119384765625,0.005688045639544725,0.006762778386473656,0.01798076368868351
1744927508216077600,8.63907763671875,0.0013847099617123604,-0.004287474323064089,0.021996373310685158
1744927508226036500,8.649036376953125,-0.005222592502832413,-0.012662583030760288,0.013041493482887745
1744927508235995600,8.65899560546875,-0.010709449648857117,-0.013939231634140015,0.011535624973475933
1744927508245954600,8.66895458984375,-0.01734471507370472,-0.01312856562435627,0.011214181780815125
1744927508255912400,8.678912353515624,-0.01661965623497963,-0.018436584621667862,0.004834335297346115
1744927508265871600,8.68887158203125,-0.011659519746899605,-0.017188359051942825,-0.0029452908784151077
1744927508275830500,8.69883056640625,-0.01375480554997921,-0.010798607021570206,-0.010260626673698425
1744927508285789400,8.70878955078125,-0.007879605516791344,-0.0008029651362448931,-0.013990117236971855
1744927508295747600,8.71874755859375,0.00012392207281664014,0.002445555292069912,-0.012394445948302746
1744927508305706500,8.72870654296875,0.010478824377059937,0.006815802305936813,-0.007932053878903389
1744927508315665400,8.73866552734375,0.014309652149677277,0.016558358445763588,-0.007778503000736237
1744927508325624600,8.74862451171875,0.015632444992661476,0.021578684449195862,-0.009931403212249279
1744927508335582500,8.75858251953125,0.013655810616910458,0.018982231616973877,0.003646010532975197
1744927508345541400,8.768541259765625,0.018552565947175026,0.015013590455055237,0.006064160726964474
1744927508355500500,8.77850048828125,0.012763721868395805,0.004124726168811321,0.014466795139014721
1744927508365459500,8.78845947265625,0.001649018726311624,0.0029598595574498177,0.017034616321325302
1744927508375417300,8.798417236328126,-0.003573474008589983,-0.0015892197843641043,0.00823801290243864
1744927508385376500,8.80837646484375,-0.006259538233280182,-0.014590771868824959,0.009129106998443604
1744927508395335400,8.81833544921875,-0.015331441536545753,-0.022597093135118484,0.00818118080496788
1744927508405294300,8.82829443359375,-0.02036880888044834,-0.016583673655986786,0.001172805787064135
1744927508415252500,8.83825244140625,-0.0177595354616642,-0.017199162393808365,-0.011740431189537048
1744927508425211400,8.84821142578125,-0.013962666504085064,-0.015643876045942307,-0.01662573404610157
1744927508435170300,8.85817041015625,-0.013025288470089436,-0.005503786262124777,-0.014709509909152985
1744927508445129500,8.86812939453125,-0.0008232175605371594,-0.0006472459062933922,-0.008446820080280304
1744927508455087400,8.87808740234375,0.00948970764875412,0.004967009648680687,-0.010881510563194752
1744927508465046500,8.888046630859375,0.012528907507658005,0.012861684896051884,-0.011256484314799309
1744927508475005400,8.89800537109375,0.013847815804183483,0.018528416752815247,-0.00561047438532114
1744927508484964400,8.90796435546875,0.018151750788092613,0.018629083409905434,0.005757228471338749
1744927508494922500,8.917922607421875,0.01963832601904869,0.01235228031873703,0.012668929994106293
1744927508504881400,8.92788134765625,0.015640389174222946,0.010612170211970806,0.01590706780552864
1744927508514840300,8.93784033203125,0.00511825131252408,0.007900910452008247,0.0116411242634058
1744927508524798500,8.947798583984374,0.0007860871264711022,-0.004020995460450649,0.01483265683054924
1744927508534757400,8.95775732421875,-0.004126290790736675,-0.01745590567588806,0.017618119716644287
1744927508544716300,8.96771630859375,-0.0125171123072505,-0.0205243993550539,0.012510443106293678
1744927508554675500,8.977675537109375,-0.023435652256011963,-0.01878621242940426,0.0060684154741466045
1744927508564633300,8.98763330078125,-0.02383272908627987,-0.0192733034491539,-0.002689123386517167
1744927508574592300,8.99759228515625,-0.014361387118697166,-0.022688087075948715,-0.006567557342350483
1744927508584551400,9.007551513671874,-0.010062512941658497,-0.01548769697546959,-0.00901793222874403
1744927508594510300,9.01751025390625,-0.013445545919239521,-0.0016001386102288961,-0.011763125658035278
1744927508604468200,9.02746826171875,-0.0012727691791951656,0.009906314313411713,-0.01376369222998619
1744927508614427400,9.037427490234375,0.015503015369176865,0.009088724851608276,-0.011329029686748981
1744927508624386300,9.04738623046875,0.016763489693403244,0.017265427857637405,-0.01216899137943983
1744927508634345200,9.05734521484375,0.015751618891954422,0.02664809674024582,-0.01019920315593481
1744927508644303400,9.067303466796876,0.0186773668974638,0.02701561152935028,-0.008390117436647415
1744927508654262300,9.07726220703125,0.024194039404392242,0.017327923327684402,-0.004859355743974447
1744927508664221200,9.08722119140625,0.017898859456181526,0.010832472704350948,0.000536208797711879
1744927508674180600,9.0971806640625,0.0038194344379007816,0.011413541622459888,0.004490102641284466
1744927508684138200,9.10713818359375,-0.004925587680190802,0.0032496219500899315,0.003671180922538042
1744927508694097400,9.117097412109375,-0.0058851083740592,-0.019066493958234787,0.007721490226686001
1744927508704056600,9.127056640625,-0.011352578178048134,-0.020553870126605034,0.011456307955086231
1744927508714015500,9.137015380859374,-0.023696154356002808,-0.017619896680116653,0.009050305932760239
1744927508723973600,9.1469736328125,-0.02279786951839924,-0.020951509475708008,0.003723451402038336
1744927508733932500,9.1569326171875,-0.0159273911267519,-0.022811032831668854,-0.002910029608756304
1744927508743891500,9.166891357421875,-0.008143236860632896,-0.01635899394750595,-0.004659992642700672
1744927508753850400,9.176850341796875,-0.012870137579739094,-0.0031072667334228754,-0.0031227366998791695
1744927508763808500,9.18680859375,-0.0030824877321720123,0.007060948759317398,-0.0081502515822649
1744927508773767400,9.196767333984376,0.011547953821718693,0.007674586493521929,-0.013810563832521439
1744927508783726300,9.206726318359374,0.01572405733168125,0.01548830047249794,-0.016179444268345833
1744927508793685500,9.216685546875,0.01586175337433815,0.024041056632995605,-0.009517943486571312
1744927508803643400,9.226643310546875,0.01790573075413704,0.02556544914841652,-0.0016200734535232186
1744927508813602600,9.2366025390625,0.020800741389393806,0.013647745363414288,-0.0014782346552237868
1744927508823561500,9.2465615234375,0.014230189844965935,0.01082932110875845,-0.0016657211817800999
1744927508833520400,9.256520263671876,0.0017241965979337692,0.008360142819583416,0.005711314268410206
1744927508843478500,9.266478515625,-0.003357913810759783,-0.0012472106609493494,0.011944176629185677
1744927508853437400,9.2764375,-0.006780635565519333,-0.01716344989836216,0.013205138966441154
1744927508863396400,9.286396240234374,-0.010692019946873188,-0.019050830975174904,0.009494823403656483
1744927508873354500,9.2963544921875,-0.020413650199770927,-0.020407486706972122,0.006994504481554031
1744927508883313400,9.3063134765625,-0.02096971869468689,-0.02232016809284687,0.009559927508234978
1744927508893272300,9.316272216796875,-0.01235981099307537,-0.021663198247551918,0.005862559657543898
1744927508903231500,9.3262314453125,-0.009082258678972721,-0.018583251163363457,-0.0005511312047019601
1744927508913189400,9.336189453125,-0.009048426523804665,0.001583282370120287,-0.0037366680335253477
1744927508923148300,9.346148193359374,-0.0029516525100916624,0.004472278989851475,-0.01274960394948721
1744927508933107500,9.356107421875,0.011856891214847565,0.012973224744200706,-0.01215687021613121
1744927508943066400,9.36606640625,0.020238656550645828,0.01695891097187996,-0.00649765320122242
1744927508953024500,9.3760244140625,0.015758667141199112,0.02297416515648365,-0.009321408346295357
1744927508962983400,9.3859833984375,0.015717387199401855,0.025402702391147614,-0.013244511559605598
1744927508972942300,9.3959423828125,0.018559057265520096,0.01688956469297409,-0.007304403930902481
1744927508982901200,9.4059013671875,0.010770909488201141,0.012740894220769405,0.0006331479526124895
1744927508992859400,9.415859375,0.0027524325996637344,0.004501208197325468,0.002751873340457678
1744927509002818300,9.425818359375,-0.0029115783981978893,-0.0047215851955115795,0.0059564546681940556
1744927509012777200,9.435777099609375,-0.005742544308304787,-0.012709325179457664,0.00814180076122284
1744927509022736400,9.445736328125,-0.012896593660116196,-0.019797062501311302,0.01063877996057272
1744927509032694300,9.4556943359375,-0.020520048215985298,-0.02000126801431179,0.014437088742852211
1744927509042653400,9.4656533203125,-0.015512507408857346,-0.024047940969467163,0.01070280373096466
1744927509052612400,9.4756123046875,-0.01592753641307354,-0.021088961511850357,0.002310010604560375
1744927509062571300,9.4855712890625,-0.013149061240255833,-0.015349050983786583,0.0004636409576050937
1744927509072529400,9.495529296875,-0.009781901724636555,0.0020591341890394688,-0.00434840889647603
1744927509082488300,9.50548828125,0.00647802883759141,0.0034999041818082333,-0.003166498150676489
1744927509092447500,9.515447509765625,0.013018084689974785,0.007431616075336933,-0.005556571297347546
1744927509102406400,9.525406494140626,0.012433520518243313,0.019260045140981674,-0.011195547878742218
1744927509112364300,9.5353642578125,0.013749956153333187,0.024001672863960266,-0.011589248664677143
1744927509122323500,9.545323486328124,0.01818625070154667,0.021756894886493683,-0.011138908565044403
1744927509132282400,9.555282470703125,0.01811479777097702,0.0166446715593338,-0.00844695046544075
1744927509142241500,9.565241455078125,0.012101644650101662,0.01449789758771658,-0.007074090652167797
1744927509152199400,9.575199462890625,0.004518063273280859,0.0010714405216276646,-0.0078422324731946
1744927509162158600,9.58515869140625,-0.0016825743950903416,-0.0016154225450009108,0.0004292797530069947
1744927509172117500,9.595117431640626,-0.010302739217877388,-0.013951599597930908,0.015018025413155556
1744927509182076400,9.605076416015624,-0.01801152527332306,-0.020962636917829514,0.018748581409454346
1744927509192034600,9.61503466796875,-0.018140587955713272,-0.022106420248746872,0.02110305428504944
1744927509201993500,9.624993408203125,-0.019243936985731125,-0.024044670164585114,0.017909657210111618
1744927509211952400,9.634952392578125,-0.012134461663663387,-0.01642780750989914,0.014535993337631226
1744927509221910500,9.64491064453125,-0.007433982100337744,-0.021029749885201454,0.014973284676671028
1744927509231869400,9.654869384765625,-0.0018885924946516752,-0.005182135384529829,0.008236178196966648
1744927509241828400,9.664828369140626,0.0014491473557427526,0.0096021369099617,-0.0019645278807729483
1744927509251787500,9.67478759765625,0.0055106887593865395,0.007724459748715162,-0.012730672955513
1744927509261745400,9.684745361328124,0.01751568727195263,0.01970895193517208,-0.020878614857792854
1744927509271704300,9.694704345703125,0.016683271154761314,0.020291149616241455,-0.022201038897037506
1744927509281663500,9.70466357421875,0.01612134464085102,0.026498977094888687,-0.02115175500512123
1744927509291622400,9.714622314453125,0.01623714715242386,0.02176079899072647,-0.02391616627573967
1744927509301580500,9.72458056640625,0.011363829486072063,0.011729736812412739,-0.0185064859688282
1744927509311539500,9.73453955078125,0.004788097459822893,0.005150058306753635,-0.005237797275185585
1744927509321498400,9.744498291015624,-0.0053598773665726185,-0.00360907893627882,0.0047967275604605675
1744927509331457300,9.754457275390624,-0.011625928804278374,-0.012012904509902,0.0157148614525795
1744927509341415400,9.76441552734375,-0.014829978346824646,-0.020267106592655182,0.020796705037355423
1744927509351374300,9.774374267578125,-0.01731010340154171,-0.025717340409755707,0.02427498623728752
1744927509361333200,9.784333251953125,-0.018407059833407402,-0.021685315296053886,0.02823963388800621
1744927509371292400,9.79429248046875,-0.017160801216959953,-0.021136749535799026,0.027676669880747795
1744927509381250300,9.804250244140626,-0.011922363191843033,-0.01591721922159195,0.01983286254107952
1744927509391209500,9.81420947265625,-0.0024256068281829357,-0.009316499345004559,0.011834929697215557
1744927509401168400,9.82416845703125,0.00470740394666791,-0.0023174455855041742,0.0038912526797503233
1744927509411127300,9.834127197265625,0.008067488670349121,0.011355101130902767,-0.0014897084329277277
1744927509421085400,9.84408544921875,0.010254476219415665,0.01778903231024742,-0.01323371659964323
1744927509431044400,9.85404443359375,0.015840336680412292,0.022560011595487595,-0.015683535486459732
1744927509441003300,9.864003173828126,0.024569379165768623,0.021309927105903625,-0.02139521762728691
1744927509450962400,9.87396240234375,0.014966286718845367,0.021068643778562546,-0.02246314473450184
1744927509460920300,9.88392041015625,0.008861789479851723,0.017591353505849838,-0.01753762923181057
1744927509470879200,9.893879150390624,0.008373099379241467,0.006989842280745506,-0.020392803475260735
1744927509480838400,9.90383837890625,0.002716811839491129,0.001192939467728138,-0.014692307449877262
1744927509490797000,9.913797119140625,-0.01255002524703741,-0.010550536215305328,-0.005298006813973188
1744927509500755000,9.9237548828125,-0.017614025622606277,-0.007514531724154949,-0.003651107894256711
1744927509510714000,9.933714111328126,-0.01394980400800705,-0.02056458219885826,-0.0010571952443569899
1744927509520673000,9.943673095703126,-0.013096527196466923,-0.02434040978550911,0.0123851103708148
1744927509530632000,9.9536318359375,-0.015012594871222973,-0.013561342842876911,0.02132366970181465
1744927509540590000,9.963590087890625,-0.011002672836184502,-0.010020403191447258,0.01825171336531639
1744927509550549000,9.973549072265625,-0.0014532019849866629,-0.009600188583135605,0.018834313377738
1744927509560508000,9.9835078125,0.005743724759668112,-0.006126627791672945,0.01662415638566017
1744927509570467000,9.993467041015625,0.004864606074988842,0.01284278929233551,0.01482611894607544
1744927509580425000,10.003425048828126,0.010560574010014534,0.018630903214216232,0.005659252405166626
1744927509590384000,10.013384033203126,0.016704754903912544,0.011303748935461044,0.0011244218330830336
1744927509600343300,10.02334326171875,0.016898632049560547,0.01603618636727333,-0.012136521749198437
1744927509610302200,10.03330224609375,0.011994566768407822,0.01963750645518303,-0.018285738304257393
1744927509620260000,10.043260009765625,0.005474349483847618,0.018348002806305885,-0.016956821084022522
1744927509630219300,10.05321923828125,0.004869600757956505,0.007007094100117683,-0.017582211643457413
1744927509640178200,10.06317822265625,0.0016921834321692586,-0.005589125212281942,-0.01512784231454134
1744927509650137000,10.07313720703125,-0.006723105441778898,-0.006591671146452427,-0.013514851219952106
1744927509660095200,10.08309521484375,-0.014951474033296108,-0.011495083570480347,-0.00820770300924778
1744927509670054100,10.09305419921875,-0.014400324784219265,-0.013514457270503044,-0.000785755692049861
1744927509680013000,10.103012939453125,-0.01304557453840971,-0.01945197582244873,0.007557661738246679
1744927509689971200,10.11297119140625,-0.010914798825979233,-0.011597009375691414,0.011541743762791157
1744927509699930000,10.12293017578125,-0.012421082705259323,-0.005860027391463518,0.02007398009300232
1744927509709889300,10.13288916015625,0.004454157315194607,-0.011174825951457024,0.020519237965345383
1744927509719848200,10.14284814453125,0.011080634780228138,-0.00296856090426445,0.026000022888183594
1744927509729806000,10.15280615234375,0.007916191592812538,0.006271352060139179,0.020611722022294998
1744927509739765200,10.16276513671875,0.0064522516913712025,0.025213085114955902,0.006873007398098707
1744927509749724200,10.17272412109375,0.016000714153051376,0.010745062492787838,-0.0024295952171087265
1744927509759683000,10.18268310546875,0.017786631360650063,0.0052850497886538506,-0.0084691122174263
1744927509769641200,10.19264111328125,0.0096708033233881,0.01918455958366394,-0.012753446586430073
1744927509779600100,10.20260009765625,0.0017156745307147503,0.013714694418013096,-0.022346684709191322
1744927509789559000,10.21255908203125,-0.002330632181838155,0.005320722237229347,-0.03119107335805893
1744927509799518200,10.222518310546874,-0.0012941297609359026,0.002366743516176939,-0.029789185151457787
1744927509809476000,10.23247607421875,-0.012099318206310272,-0.007554434239864349,-0.01893102191388607
1744927509819435000,10.24243505859375,-0.013582965359091759,-0.0031160099897533655,-0.00430920347571373
1744927509829394200,10.252394287109375,-0.012311305850744247,-0.017587095499038696,0.0009763723355717957
1744927509839353000,10.26235302734375,-0.009482762776315212,-0.018590839579701424,0.011085199192166328
1744927509849311200,10.272311279296876,-0.007884267717599869,-0.008791029453277588,0.01742544397711754
1744927509859270100,10.282270263671874,-0.008121289312839508,-0.010893861763179302,0.02651108428835869
1744927509869229000,10.29222900390625,0.0025178375653922558,-0.009456910192966461,0.03606603294610977
1744927509879188000,10.30218798828125,0.004162872210144997,-0.012729402631521225,0.03779122978448868
1744927509889146000,10.31214599609375,0.004529635421931744,-0.002232404425740242,0.02973388321697712
1744927509899105000,10.32210498046875,0.004605801776051521,0.00936619471758604,0.016765620559453964
1744927509909064000,10.33206396484375,0.008226543664932251,0.0017897356301546097,0.005339758470654488
1744927509919023000,10.342023193359376,0.010794363915920258,0.002530094236135483,-0.005352034233510494
1744927509928981000,10.35198095703125,0.007833332754671574,0.01282712072134018,-0.014458561316132545
1744927509938940200,10.361940185546874,-0.0005955725791864097,0.014101443812251091,-0.03121011145412922
1744927509948899000,10.371899169921875,0.0023285967763513327,0.011136573739349842,-0.040916260331869125
1744927509958858000,10.38185791015625,0.003214364405721426,0.005045924335718155,-0.05260301008820534
1744927509968816000,10.391816162109375,-0.004351731389760971,0.007972043007612228,-0.043368954211473465
1744927509978775000,10.401775146484376,-0.0055544148199260235,0.007074024993926287,-0.03624526411294937
1744927509988734000,10.41173388671875,0.0005295578157529235,-0.006330224219709635,-0.016111772507429123
1744927509998693000,10.421693115234374,0.0012052018428221345,-0.006013041827827692,0.0022376738488674164
1744927510008651000,10.431651123046874,-0.006384918000549078,-0.011006793938577175,0.015937931835651398
1744927510018610000,10.44160986328125,-0.007742065005004406,-0.008074653334915638,0.03599127009510994
1744927510028569300,10.4515693359375,-0.004524111747741699,-0.01637556403875351,0.04505285993218422
1744927510038528300,10.4615283203125,0.0037878802977502346,-0.018325263634324074,0.043640587478876114
1744927510048486000,10.47148583984375,-0.000007968803402036428,-0.010078135877847672,0.042979273945093155
1744927510058445300,10.4814453125,-0.0033789980225265026,-0.00029661133885383606,0.028299396857619286
1744927510068404200,10.491404296875,0.00045649585081264377,0.0037215794436633587,0.011342654004693031
1744927510078363100,10.501363037109375,0.0009710185113362968,0.0016357917338609695,-0.0023422655649483204
1744927510088321300,10.5113212890625,0.0060156239196658134,0.005793401505798101,-0.01711530238389969
1744927510098280200,10.5212802734375,0.00348269147798419,0.009314633905887604,-0.02698151394724846
1744927510108239000,10.531239013671875,0.005049539729952812,0.011156799271702766,-0.03225047141313553
1744927510118198300,10.5411982421875,0.009599816985428333,0.007778048049658537,-0.03449365124106407
1744927510128156200,10.55115625,0.0026686182245612144,0.009124379605054855,-0.031784605234861374
1744927510138115000,10.561114990234374,0.000754604465328157,0.010640250518918037,-0.02544654905796051
1744927510148074200,10.57107421875,-0.003072588937357068,0.0017062798142433167,-0.018270213156938553
1744927510158032100,10.5810322265625,0.0003082941402681172,-0.0029657038394361734,-0.007154977880418301
1744927510167991000,10.590990966796875,-0.0016049304977059364,-0.010498285293579102,0.004118677694350481
1744927510177950200,10.6009501953125,-0.01134677417576313,-0.004486199002712965,0.01590023562312126
1744927510187909000,10.6109091796875,-0.007848048582673073,-0.0008952899370342493,0.02085293084383011
1744927510197867300,10.6208671875,-0.0028399741277098656,-0.012701082974672318,0.027935076504945755
1744927510207826200,10.630826171875,0.005270315799862146,-0.011765293776988983,0.03266594186425209
1744927510217785000,10.64078515625,0.0013903563376516104,-0.005252000410109758,0.04023491218686104
1744927510227744000,10.650743896484375,-0.003457239829003811,-0.00008739065378904343,0.03573086857795715
1744927510237702100,10.6607021484375,0.008605016395449638,-0.002836039289832115,0.02042435109615326
1744927510247661000,10.6706611328125,0.009102518670260906,-0.007162756286561489,0.005688591860234737
1744927510257620200,10.6806201171875,0.0022544660605490208,0.010625028982758522,-0.0025885128416121006
1744927510267579100,10.6905791015625,-0.003643992356956005,0.010700099170207977,-0.015674855560064316
1744927510277537000,10.700537109375,0.0018530382076278329,0.0040219565853476524,-0.02792246639728546
1744927510287496200,10.71049609375,0.00533808721229434,0.0024507446214556694,-0.03779052942991257
1744927510297455000,10.720455078125,-0.003580573247745633,0.009806395508348942,-0.042896877974271774
1744927510307414000,10.7304140625,-0.0077644712291657925,0.01353623066097498,-0.04053617641329765
1744927510317372200,10.7403720703125,-0.0002756622852757573,-0.0008261967450380325,-0.02589092217385769
1744927510327331000,10.7503310546875,0.0052482751198112965,-0.004556206986308098,-0.016435232013463974
1744927510337290000,10.7602900390625,-0.0038389628753066063,0.0038085151463747025,-0.0009220525389537215
1744927510347249200,10.770249267578125,-0.006919349078088999,0.004370208363980055,0.013884159736335278
1744927510357207000,10.78020703125,0.005055821035057306,-0.006948492489755154,0.02362094260752201
1744927510367166000,10.790166015625,0.006236978340893984,-0.013975094072520733,0.039064664393663406
1744927510377125000,10.800125,-0.003169040195643902,-0.007772326003760099,0.04202849790453911
1744927510387084000,10.810083984375,-0.005994800478219986,0.00023187696933746338,0.038281671702861786
1744927510397042000,10.8200419921875,0.001588017912581563,-0.009205300360918045,0.02971028909087181
1744927510407001000,10.8300009765625,0.003406644333153963,-0.007823002524673939,0.016561945900321007
1744927510416960000,10.8399599609375,-0.00019980821525678039,-0.0005046357400715351,0.0012205399107187986
1744927510426919200,10.849919189453125,-0.003983315080404282,0.009041613899171352,-0.014790600165724754
1744927510436877000,10.859876953125,0.0016607220750302076,0.008039732463657856,-0.026959648355841637
1744927510446836000,10.8698359375,0.002713304478675127,0.004246104974299669,-0.03505195677280426
1744927510456795100,10.879795166015626,0.0006552134873345494,0.009398255497217178,-0.04672699049115181
1744927510466754300,10.88975439453125,-0.007629001513123512,0.014556817710399628,-0.04242895171046257
1744927510476712200,10.899712158203124,-0.000295987818390131,0.009657399728894234,-0.03117256611585617
1744927510486671000,10.909671142578125,0.007961198687553406,-0.0013298422563821077,-0.015706337988376617
1744927510496630000,10.919630126953125,0.0056498413905501366,0.004099544137716293,-0.0011241992469877005
1744927510506589000,10.9295888671875,-0.009702527895569801,0.0019214628264307976,0.017984729260206223
1744927510516547000,10.939547119140625,0.0007969842408783734,-0.004799023736268282,0.02801579236984253
1744927510526506000,10.949506103515626,0.008298044092953205,-0.01704716682434082,0.04077313095331192
1744927510536465000,10.95946484375,-0.0024733776226639748,-0.008958615362644196,0.04647922143340111
1744927510546423800,10.969423828125,-0.01468984130769968,-0.0015888640191406012,0.042922165244817734
1744927510556382000,10.9793818359375,-0.0038923206739127636,-0.017700722441077232,0.033729732036590576
1744927510566340900,10.9893408203125,0.006036727223545313,-0.0192840788513422,0.022832171991467476
1744927510576300000,10.999300048828125,0.0007474230951629579,-0.006646846886724234,0.005255840718746185
1744927510586259000,11.009259033203126,-0.008801662363111973,0.012428680434823036,-0.021098988130688667
1744927510596216800,11.019216796875,-0.001036949804984033,0.01804928295314312,-0.04552257061004639
1744927510606176000,11.029176025390624,0.007402882445603609,0.009433702565729618,-0.053907398134469986
1744927510616135000,11.039135009765625,0.0029322339687496424,0.017700420692563057,-0.05370766296982765
1744927510626094000,11.049093994140625,-0.004656426142901182,0.025558453053236008,-0.040047869086265564
1744927510636052000,11.059052001953125,0.00692406389862299,0.01875966787338257,-0.030551834031939507
1744927510646011000,11.069010986328125,0.017907969653606415,-0.0059154522605240345,-0.012619086541235447
1744927510655970000,11.078969970703126,0.01245860941708088,-0.003879731986671686,0.015300162136554718
1744927510665929000,11.088928955078124,-0.005432011093944311,0.0029026702977716923,0.03750701621174812
1744927510675886800,11.098886962890624,-0.008276000618934631,-0.009681830182671547,0.05096902698278427
1744927510685846000,11.108845947265625,-0.0006183559889905155,-0.021308938041329384,0.04808175936341286
1744927510695805200,11.11880517578125,-0.002591758267953992,-0.021845299750566483,0.04113996401429176
1744927510705764000,11.12876416015625,-0.01705905795097351,-0.008798576891422272,0.03479277342557907
1744927510715722000,11.138721923828125,-0.011776147410273552,-0.010039344429969788,0.02522057294845581
1744927510725681200,11.14868115234375,-0.005453912541270256,-0.02078578993678093,0.008527505211532116
1744927510735640000,11.15864013671875,-0.007346088532358408,-0.005388990510255098,-0.0062045687809586525
1744927510745599000,11.168598876953125,-0.008261462673544884,0.005068561062216759,-0.02463609166443348
1744927510755557000,11.17855712890625,0.006894586607813835,0.007176985964179039,-0.03220426291227341
1744927510765516000,11.18851611328125,0.014974773861467838,0.00787414237856865,-0.03651895374059677
1744927510775475000,11.198474853515625,0.011599482968449593,0.019271939992904663,-0.03929103910923004
1744927510785434000,11.20843408203125,-0.0020395289175212383,0.03838948905467987,-0.03655547276139259
1744927510795392000,11.21839208984375,0.008986757136881351,0.018186479806900024,-0.029772132635116577
1744927510805351000,11.228350830078124,0.022549061104655266,0.004257290158420801,-0.010550609789788723
1744927510815310000,11.23831005859375,0.00952114351093769,-0.002989703556522727,0.009587948210537434
1744927510825269000,11.24826904296875,-0.007362849079072475,0.0018010372295975685,0.024760011583566666
1744927510835227100,11.25822705078125,-0.009851840324699879,-0.0039010571781545877,0.0353039987385273
1744927510845186000,11.26818603515625,-0.0027887686155736446,-0.028810622170567513,0.03537534177303314
1744927510855145000,11.27814501953125,-0.0032630774658173323,-0.030089205130934715,0.03561822324991226
1744927510865104000,11.288103759765624,-0.021365255117416382,-0.019969824701547623,0.036705609411001205
1744927510875062000,11.29806201171875,-0.018093029037117958,-0.012709781527519226,0.02252827025949955
1744927510885021000,11.30802099609375,-0.009522580541670322,-0.019465336576104164,0.006110794842243195
1744927510894979800,11.317979736328125,-0.002357078716158867,-0.012060150504112244,-0.015980392694473267
1744927510904938000,11.32793798828125,-0.006984083913266659,0.009088769555091858,-0.029618849977850914
1744927510914897000,11.33789697265625,-0.0036000055260956287,0.01728731207549572,-0.036433346569538116
1744927510924856000,11.34785595703125,0.013237941078841686,0.01041801180690527,-0.04288448020815849
1744927510934815000,11.35781494140625,0.019083578139543533,0.023556184023618698,-0.04592074826359749
1744927510944772900,11.36777294921875,0.012110552750527859,0.029173584654927254,-0.044212426990270615
1744927510954732000,11.37773193359375,0.01272574346512556,0.0342695415019989,-0.027784984558820724
1744927510964691000,11.38769091796875,0.019799834117293358,0.010111302137374878,-0.013321147300302982
1744927510974649900,11.39764990234375,0.018998488783836365,-0.0039017191156744957,0.0009581898921169341
1744927510984608000,11.40760791015625,-0.0029211363289505243,0.004694328643381596,0.016173815354704857
1744927510994567000,11.41756689453125,-0.014133843593299389,-0.0029113932978361845,0.02552044577896595
1744927511004525800,11.42752587890625,-0.005515477620065212,-0.022088490426540375,0.03238644823431969
1744927511014485000,11.437485107421875,-0.005607889499515295,-0.03765413537621498,0.0400097481906414
1744927511024443000,11.44744287109375,-0.020619137212634087,-0.02163141593337059,0.02831508032977581
1744927511034401800,11.45740185546875,-0.025184061378240585,-0.007768064737319946,0.02128113992512226
1744927511044361000,11.46736083984375,-0.010659217834472656,-0.02498260699212551,0.006562999449670315
1744927511054320000,11.477320068359376,0.004486179910600185,-0.01673426479101181,0.0008121694554574788
1744927511064277800,11.48727783203125,-0.0015381567645817995,0.003931066021323204,-0.009647129103541374
1744927511074237000,11.49723681640625,-0.003990395460277796,0.01678214967250824,-0.020967161282896996
1744927511084196000,11.507196044921875,0.012199116870760918,0.020120099186897278,-0.03805544227361679
1744927511094155000,11.517155029296875,0.02087036892771721,0.013524512760341167,-0.040606752038002014
1744927511104113200,11.527113037109375,0.012521680444478989,0.029008828103542328,-0.02868039533495903
1744927511114072000,11.537072021484375,0.009791940450668335,0.02770627662539482,-0.019372913986444473
1744927511124031000,11.547031005859376,0.018601711839437485,0.010932756587862968,-0.006082228384912014
1744927511133990100,11.556990234375,0.016993165016174316,-0.0002181651070713997,0.00826555211097002
1744927511143948000,11.566947998046874,0.002131890505552292,-0.0021528210490942,0.019857313483953476
1744927511153907000,11.576906982421875,-0.01058097556233406,0.0007596118375658989,0.027238797396421432
1744927511163866000,11.5868662109375,-0.01104546058923006,-0.015025784261524677,0.03991822898387909
1744927511173825000,11.596824951171875,-0.010378871113061905,-0.028948791325092316,0.03612455725669861
1744927511183783200,11.606783203125,-0.019778763875365257,-0.026184163987636566,0.031659502536058426
1744927511193742000,11.6167421875,-0.02123711258172989,-0.018036752939224243,0.026776062324643135
1744927511203701000,11.626700927734374,-0.016649805009365082,-0.022410714998841286,0.016885749995708466
1744927511213660000,11.636659912109375,-0.007499983534216881,-0.01810278743505478,0.0023361032363027334
1744927511223618000,11.6466181640625,-0.0016396782593801618,-0.0023208665661513805,-0.013720887713134289
1744927511233577000,11.656576904296875,0.0011523799039423466,0.012495897710323334,-0.03510793298482895
1744927511243536000,11.666535888671875,0.012302392162382603,0.018074095249176025,-0.04344400390982628
1744927511253495000,11.6764951171875,0.022500701248645782,0.021363630890846252,-0.04428583011031151
1744927511263453000,11.686452880859376,0.019266583025455475,0.03470352292060852,-0.042707860469818115
1744927511273412000,11.696412109375,0.010785214602947235,0.031251534819602966,-0.03070632740855217
1744927511283371000,11.70637109375,0.017335087060928345,0.018133820965886116,-0.022782688960433006
1744927511293330000,11.716329833984375,0.015474336221814156,0.00665106950327754,-0.008153945207595825
1744927511303288000,11.7262880859375,0.001904236152768135,0.008199566975235939,0.012049241922795773
1744927511313247000,11.7362470703125,-0.009874925017356873,-0.0026885000988841057,0.0270545557141304
1744927511323206000,11.746205810546876,-0.005388353485614061,-0.016858011484146118,0.03633948042988777
1744927511333165000,11.7561650390625,-0.010260073468089104,-0.032056670635938644,0.04450073465704918
1744927511343123000,11.766123046875,-0.019436461851000786,-0.02834351547062397,0.04654264077544212
1744927511353081900,11.776081787109375,-0.020984292030334473,-0.024711497128009796,0.03580956906080246
1744927511363041000,11.786041015625,-0.014525769278407097,-0.028952550143003464,0.021715154871344566
1744927511373000000,11.796,-0.01099308580160141,-0.019018959254026413,0.010271020233631134
1744927511382957800,11.805957763671875,-0.00890301913022995,-0.0006793392822146416,-0.004651197697967291
1744927511392917000,11.8159169921875,-0.0011170009383931756,0.007341036573052406,-0.019776886329054832
1744927511402876000,11.8258759765625,0.014884013682603836,0.01821349561214447,-0.028798531740903854
1744927511412834800,11.835834716796874,0.016026509925723076,0.0147191621363163,-0.030741041526198387
1744927511422793000,11.84579296875,0.015470699407160282,0.034638531506061554,-0.02959415502846241
1744927511432751900,11.855751953125,0.016426241025328636,0.026332927867770195,-0.03192814812064171
1744927511442710800,11.865710693359375,0.018666714429855347,0.013762924820184708,-0.026215985417366028
1744927511452670200,11.875670166015626,0.011947558261454105,0.019214149564504623,-0.014829108491539955
1744927511462627800,11.8856279296875,-0.0012938437284901738,0.00805341824889183,0.00310805207118392
1744927511472586800,11.895586669921874,-0.00024455832317471504,-0.007138583809137344,0.0216633602976799
1744927511482546200,11.905546142578125,-0.005171250086277723,-0.017714055255055428,0.02168269455432892
1744927511492504600,11.915504638671875,-0.014147967100143433,-0.025159720331430435,0.025856666266918182
