time,seconds_elapsed,z,y,x
1744926470909166600,0.02416650390625,0.29126141241192816,0.03860474820435047,0.5258823979848996
1744926470919126500,0.03412646484375,0.23810908341705797,0.1566875222712755,0.17068316826745866
1744926470929085400,0.04408544921875,-0.041754225211218,0.150509710419178,-0.23404347794596103
1744926470939044400,0.05404443359375,-0.32394378482997416,-0.045455344751477236,-0.5371547564970329
1744926470949004300,0.06400439453125,-0.5341635753244162,-0.23797347433865068,-0.6679553751766681
1744926470958963700,0.073963623046875,-0.5255249263167381,-0.21209493671655655,-0.5931347101332619
1744926470968922600,0.083922607421875,-0.22068222086317835,0.017416998746991156,-0.41735283048730343
1744926470978882600,0.093882568359375,-0.0030487931113690136,0.054359951218962664,-0.3507503605498001
1744926470988841500,0.103841552734375,0.03753806882090866,-0.003072247052192688,-0.11113072643931954
1744926470998801400,0.113801513671875,0.15644662618748842,-0.069864978864789,0.4002771559912711
1744926471008760600,0.123760498046875,0.23235146973840892,0.0381067355543375,0.6394620519462972
1744926471018719500,0.133719482421875,0.1801507423799485,0.2517284434467554,0.30973117161486297
1744926471028679700,0.1436796875,0.20848602550439535,0.2103974851489067,0.03445628675539046
1744926471038638600,0.153638671875,0.16369060596637428,0.02350713231563568,0.08062953398525714
1744926471048597500,0.163597412109375,-0.2971067043740302,0.01933306150138378,-0.33961185755040496
1744926471058557400,0.173557373046875,-0.07343523856699466,-0.19638649545311926,-0.7259966452568769
1744926471068516600,0.1835166015625,0.10974230428822337,0.05733341407179832,-0.24668171798381952
1744926471078476500,0.1934765625,-0.2447540013242513,0.3193552879959345,0.27917335360273715
1744926471088435500,0.203435546875,-0.18511172578819096,-0.16601590710878372,0.06492620728835463
1744926471098394600,0.21339453125,-0.17410517860539257,-0.3570990354567766,-0.2076870206138119
1744926471108354600,0.2233544921875,-0.1861240446358919,0.022960604348778724,0.22443996596150098
1744926471118313500,0.2333134765625,0.06331957580931484,0.1947504186838865,0.6656530895836651
1744926471128272600,0.243272705078125,0.02560841544382274,0.06319207697212696,0.36176092632059004
1744926471138232600,0.253232666015625,-0.03820135503523051,-0.12822832050621508,-0.0317872502092272
1744926471148191500,0.26319140625,0.19910167269594967,-0.05119710327386856,0.18812858939133584
1744926471158151700,0.273151611328125,0.27027057376615704,0.26498072372972964,0.43133408263195305
1744926471168110600,0.283110595703125,0.2576969964623451,0.25209552319347855,0.015124102036841213
1744926471178069500,0.293069580078125,0.20895305849425494,0.007436287480592727,-0.42229810486976055
1744926471188029400,0.303029541015625,0.14009060773551463,-0.002751344534754753,-0.2509135468672961
1744926471197988600,0.312988525390625,0.10100194847173988,0.10650865612924099,-0.008331957678683102
1744926471207947500,0.322947509765625,0.004956818689778447,0.11300737049877643,-0.2636622615423053
1744926471217907500,0.332907470703125,-0.05697393310964107,-0.008597147953510284,-0.5350397736370563
1744926471227866400,0.342866455078125,-0.12257080620117485,-0.060248424735665315,-0.21303930489458142
1744926471237826600,0.35282666015625,-0.264956246875599,-0.019857377636432645,0.16540917338728903
1744926471247785500,0.362785400390625,-0.26816293396241964,-0.09106851041316985,0.031791670656017956
1744926471257744600,0.37274462890625,-0.14779351026304066,-0.11789981871545314,-0.11902688651662319
1744926471267704600,0.38270458984375,-0.15043898327052593,0.0025192893445491788,0.20606515503302214
1744926471277663500,0.39266357421875,-0.12861761208474634,0.002859481084346771,0.5249726261962205
1744926471287622400,0.402622314453125,-0.06567169189341365,-0.10737374852597713,0.3268407483804971
1744926471297582600,0.41258251953125,0.06539397093057632,-0.0419540586322546,0.02934734624382108
1744926471307541500,0.42254150390625,0.27092348471693695,0.15277648630738258,0.15579287498649208
1744926471317501400,0.43250146484375,0.2852075192004442,0.23754501979351042,0.30623741121497006
1744926471327460600,0.442460693359375,0.21036592096686363,0.10413608177900313,0.016270422527752817
1744926471337419500,0.45241943359375,0.22726035714447498,-0.0329652810126543,-0.3227587032312527
1744926471347379500,0.46237939453125,0.203359768531844,0.10523264484405517,-0.23048512787725775
1744926471357338400,0.47233837890625,0.1075835188191384,0.20430092183947562,-0.059110872073099015
1744926471367297500,0.482297607421875,-0.010370660432055591,0.044565702435374256,-0.2301784365482628
1744926471377257500,0.492257568359375,-0.15884849969744683,-0.1347334646165371,-0.41031774421874434
1744926471387216600,0.502216552734375,-0.22297814978063105,-0.1107078613847494,-0.18811949276942758
1744926471397176600,0.512176513671875,-0.2040396405547857,0.022971710264682768,0.10075670500639826
1744926471407135500,0.522135498046875,-0.2533101596802473,-0.012924363502860069,0.03913048911150545
1744926471417094400,0.532094482421875,-0.23364443215839564,-0.15090017104148865,-0.05010243990495801
1744926471427054600,0.5420546875,-0.14989077480323612,-0.130485159522295,0.17305431784559042
1744926471437013500,0.552013427734375,-0.06575462093651294,0.05591477944552898,0.4112335804220289
1744926471446973400,0.561973388671875,0.07317395728230476,0.08351473403275013,0.2902619895784184
1744926471456932600,0.5719326171875,0.17265139960050582,0.03896013751327991,0.05859178010243922
1744926471466891500,0.5818916015625,0.19946400320231913,0.0783744485348463,0.13168240648284554
1744926471476851500,0.5918515625,0.2308499791342765,0.12383037780821322,0.2326301040166989
1744926471486810400,0.601810302734375,0.2395599398124963,0.13457447466254233,0.021136201933212577
1744926471496769500,0.61176953125,0.22991934722065924,0.10224456894397735,-0.24120335963796824
1744926471506729700,0.621729736328125,0.16851831838376818,0.10711889698207377,-0.20226590888053178
1744926471516688600,0.631688720703125,0.040929537890106435,0.08164075685441494,-0.053630394835397596
1744926471526648600,0.641648681640625,-0.06147000241987407,-0.029586159968376158,-0.17525285080317407
1744926471536607500,0.651607421875,-0.09410152143351733,-0.07053717903792858,-0.31421986133623864
1744926471546566400,0.66156640625,-0.1491628989201039,-0.011540800189971924,-0.17254907173719256
1744926471556526300,0.6715263671875,-0.21863690570592878,0.0021264906346797944,0.08599873286820947
1744926471566485800,0.68148583984375,-0.26018238353729245,-0.11125088222026824,0.05922207736261188
1744926471576444700,0.691444580078125,-0.24952479592263696,-0.13509236105680464,-0.019914295455440878
1744926471586404600,0.701404541015625,-0.12881401143968105,-0.03917874870002269,0.13516184609644114
1744926471596363500,0.711363525390625,-0.05065291339457035,0.06668401074111462,0.3173854126950726
1744926471606323500,0.721323486328125,-0.00492868857383728,0.03147358115017414,0.24552253801133483
1744926471616282400,0.731282470703125,0.07992343154251574,-0.0199029703438282,0.07559614292792975
1744926471626241500,0.741241455078125,0.155899586763978,0.07164952419400215,0.09051036507375537
1744926471636201700,0.75120166015625,0.22495266472399233,0.17760230000615118,0.15075999538581816
1744926471646160600,0.76116064453125,0.2528028677452355,0.1423012695223093,-0.0022451120456680653
1744926471656119600,0.77111962890625,0.18163089793510734,0.06979834336936473,-0.1909772568207234
1744926471666079500,0.78107958984375,0.12954174119234085,0.04962064773738384,-0.14990600890498607
1744926471676038400,0.791038330078125,0.1169996550053358,0.09167173700332641,-0.06654836513008922
1744926471685998300,0.800998291015625,0.029897125613689422,0.10132628505527973,-0.15011512161102145
1744926471695957500,0.81095751953125,-0.02889299007244408,0.026487609431147575,-0.2226950219903141
1744926471705916700,0.820916748046875,-0.07053316044993699,-0.04608195221722126,-0.10781002105139195
1744926471715876600,0.830876708984375,-0.17861469191908835,-0.021354922717809675,0.04417184427957981
1744926471725835500,0.84083544921875,-0.194416145228222,-0.0646492900431156,0.034019429708085955
1744926471735794400,0.85079443359375,-0.1416985543888062,-0.05436053574085235,0.027289829192124304
1744926471745754400,0.86075439453125,-0.15651742640137672,-0.016412790140509604,0.12331935954615474
1744926471755713500,0.870713623046875,-0.12997779452204702,-0.016321604725718496,0.23699144103135913
1744926471765673700,0.880673828125,-0.06074760642945766,-0.043594227054715155,0.17047237506099044
1744926471775632600,0.890632568359375,-0.023666779856756328,0.01754851617217064,0.04441770879942924
1744926471785591600,0.900591552734375,0.0791973822902888,0.07590659711658954,0.07042875022739171
1744926471795551500,0.910551513671875,0.13759820639789103,0.10129355182945728,0.09708433663658797
1744926471805510400,0.920510498046875,0.14088263489603994,0.07926175276339054,-0.021378157462924718
1744926471815470300,0.93047021484375,0.17800028634779155,0.051394671672582624,-0.13491667569633572
1744926471825429500,0.940429443359375,0.18874964389912782,0.10454992327690124,-0.10396993143185973
1744926471835388400,0.950388427734375,0.14073657748885451,0.1424181739002466,-0.0632599180439487
1744926471845348600,0.9603486328125,0.06251344705820083,0.04703180028796196,-0.09827073340956122
1744926471855307500,0.9703076171875,-0.003761471425369382,-0.02182312475144863,-0.13650200865902007
1744926471865266700,0.9802666015625,-0.04515365839116275,-0.01809562866091728,-0.06723517835047095
1744926471875226600,0.9902265625,-0.08619177122227847,0.03381283775269985,0.049609541821479794
1744926471885185500,1.000185546875,-0.12925357190072537,0.02068330706655979,0.039785774682462215
1744926471895144400,1.01014453125,-0.14950608633458615,-0.07422785024940967,0.04123169917445629
1744926471905104400,1.0201044921875,-0.16342179896235465,-0.06812777980864047,0.0959855450818315
1744926471915063300,1.030063232421875,-0.0982948814701289,-0.007306523621082306,0.1620753162568435
1744926471925023200,1.040023193359375,-0.04905307698249817,0.0228396083176136,0.12022146659605204
1744926471934982400,1.049982421875,0.01623575307317078,0.02006196029782295,0.049538997335918246
1744926471944941300,1.05994140625,0.05614749222286045,0.034147768795490266,0.04975329767372459
1744926471954901500,1.069901611328125,0.11665076850242911,0.06943126362264156,0.06537208789233118
1744926471964860400,1.0798603515625,0.14264387241490184,0.1157668983399868,-0.016241159900650382
1744926471974819300,1.0898193359375,0.1746874354727566,0.09220189835727215,-0.11130352572295814
1744926471984779300,1.099779296875,0.15607793900556863,0.0817728588014841,-0.09062832889761775
1744926471994738400,1.109738525390625,0.13138057399205863,0.08331073589324951,-0.042000235861539836
1744926472004698400,1.119698486328125,0.07433416016809642,0.07244272039830685,-0.08120499578565359
1744926472014657300,1.1296572265625,0.02278459019474685,0.0378191507846117,-0.10403397311139852
1744926472024616400,1.139616455078125,-0.0708330201793462,0.027454408636689184,-0.041638562942296266
1744926472034576400,1.149576416015625,-0.1412561443835497,-0.012658406043052673,0.027434242631494996
1744926472044535300,1.159535400390625,-0.15363756011612711,-0.043736265873909,0.05006444598212838
1744926472054494500,1.169494384765625,-0.1729880842089653,-0.04109890310764312,0.08376253478135913
1744926472064454400,1.179454345703125,-0.1458387959986925,-0.03967033160924911,0.08814053066987544
1744926472074413300,1.189413330078125,-0.10035882826261222,-0.011893266889452933,0.131320404770039
1744926472084373500,1.19937353515625,-0.0662923810750246,0.01004910032749176,0.0745527713548392
1744926472094332400,1.20933251953125,0.005630699363350868,0.01686521008312702,0.050087534596771
1744926472104291300,1.219291259765625,0.055012204582616686,0.053718146184086796,0.0207069802030921
1744926472114251300,1.229251220703125,0.1163724630177021,0.08154898691773414,-0.000740991093032062
1744926472124210400,1.23921044921875,0.16032390601225197,0.10157412233650684,-0.03980433325245976
1744926472134169300,1.24916943359375,0.16346914523541928,0.09119535166323184,-0.06997421139292419
1744926472144129300,1.25912939453125,0.18967150798439977,0.07209083822071552,-0.06988773868586867
1744926472154088200,1.269088134765625,0.12928170201666653,0.08874211329221725,-0.05800977896340191
1744926472164048400,1.27904833984375,0.07265263682194054,0.08849018435776233,-0.04693696161136031
1744926472174007300,1.28900732421875,0.02667297593541443,0.025111644902825355,-0.03157357092592865
1744926472183966500,1.298966552734375,-0.03372515946924686,-0.002623334240913391,0.022603826800361274
1744926472193926400,1.308926513671875,-0.12547639144957065,-0.023746201768517494,0.05855174035299569
1744926472203885300,1.31888525390625,-0.14366320552527903,-0.048266310518980025,0.07485416545420885
1744926472213844200,1.32884423828125,-0.17677578605413435,-0.0413093309879303,0.07496756270080804
1744926472223804400,1.338804443359375,-0.17753098833560943,-0.04660159217715263,0.07972337892577051
1744926472233763600,1.348763671875,-0.10807217911891638,-0.026602175721526143,0.06797127407267689
1744926472243723500,1.3587236328125,-0.05839592873677611,0.00717909784913063,0.043262510882318014
1744926472253682400,1.368682373046875,-0.007830182169005275,0.018790040665864944,0.00566109450161457
1744926472263641300,1.378641357421875,0.0807500185597688,0.04398702576458454,-0.017955416472628712
1744926472273601300,1.388601318359375,0.0967618266839534,0.06869242795407772,-0.014082337898947297
1744926472283560200,1.398560302734375,0.1317484574563801,0.08723463133871555,-0.032770598690770564
1744926472293519400,1.408519287109375,0.1579998469788581,0.09211480459570884,-0.05160210387818515
1744926472303479600,1.4184794921875,0.17230251309759914,0.09787176068723201,-0.03942549000270665
1744926472313438500,1.4284384765625,0.13813772010207176,0.09328969359397887,-0.030177732653357086
1744926472323398400,1.4383984375,0.10738945755176245,0.0738823978126049,-0.02174567560106516
1744926472333357300,1.448357421875,0.03608896599113941,0.047754269343614576,-0.004282316961698234
1744926472343316200,1.458316162109375,0.019077698500826953,0.02074701995253563,0.037619244298338884
1744926472353276200,1.468276123046875,-0.04217625001557171,0.0031827216893434524,0.05615180307179689
1744926472363235600,1.478235595703125,-0.12209025614261626,-0.027066286101937294,0.0722034682823345
1744926472373194500,1.488194580078125,-0.16087788663320243,-0.052180269092321395,0.0648760114710778
1744926472383154400,1.498154541015625,-0.17111228039972484,-0.03685468966662884,0.05348364330846816
1744926472393113300,1.50811328125,-0.14207732457332312,-0.05605564922094345,0.0449615698851645
1744926472403073300,1.5180732421875,-0.13915478819012642,-0.03514437861740589,0.039090047503262754
1744926472413032200,1.5280322265625,-0.08948328704833984,-0.003763736447691917,0.006658142714947462
1744926472422991400,1.537991455078125,-0.0003285743672400713,0.028074586361646652,-0.04225673137325793
1744926472432951600,1.54795166015625,0.0662437926929444,0.06421732836663722,-0.05899999557714909
1744926472442910500,1.557910400390625,0.14182305755130944,0.11809972520172596,-0.06552395398579537
1744926472452869400,1.567869384765625,0.19282142338268457,0.10849544603228568,-0.06799407042637468
1744926472462829300,1.577829345703125,0.2124895620573312,0.1093225445061922,-0.07127155772708356
1744926472472788200,1.587788330078125,0.17646189779937266,0.13062252216637132,-0.0374532400816679
1744926472482747400,1.597747314453125,0.13280403092391788,0.09009294337928295,0.002890095418319106
1744926472492707300,1.607707275390625,0.09521678919903934,0.047915597385168075,0.03005885551404208
1744926472502666500,1.61766650390625,-0.0033188422244042155,0.01429506733417511,0.05272602987419814
1744926472512626400,1.62762646484375,-0.08377301964275538,-0.0172147541731596,0.08657149125486611
1744926472522585300,1.63758544921875,-0.12777348941080272,-0.043726329001784324,0.10317067081294953
1744926472532544300,1.647544189453125,-0.20012451293766498,-0.05955810438394546,0.07780570873618126
1744926472542504200,1.657504150390625,-0.20145780736804006,-0.06396773751974105,0.04315733347479254
1744926472552463400,1.66746337890625,-0.1619125634431839,-0.04769172550141811,0.029352351212501526
1744926472562422300,1.67742236328125,-0.12833068490214644,-0.014198621222376823,0.02571622319985181
1744926472572382500,1.687382568359375,-0.07380458333604037,0.0062754270076751705,-0.012900325040146708
1744926472582341400,1.69734130859375,0.004796075170114636,0.04709259056448936,-0.06883797390460968
1744926472592301300,1.70730126953125,0.06581833382248878,0.0702133539110422,-0.0814994121549651
1744926472602260200,1.71726025390625,0.1311960112053901,0.10137830750346183,-0.05805953638926148
1744926472612219400,1.727219482421875,0.17683957200534642,0.10136603254377842,-0.055943895942159
1744926472622179300,1.737179443359375,0.20213000754117966,0.1066957031339407,-0.036585736532136794
1744926472632138200,1.74713818359375,0.16863456517457961,0.10989479143619536,-0.010248203096166253
1744926472642097400,1.757097412109375,0.15341069255769252,0.09256313288509845,0.01079926110766828
1744926472652057300,1.767057373046875,0.09656009356677532,0.06324526846408844,0.05010134392641485
1744926472662016500,1.7770166015625,0.03910751009471714,0.03618599662482738,0.06217245160080492
1744926472671976400,1.7869765625,-0.055761561645194885,0.0055681555211544035,0.07638367657642811
1744926472681935400,1.796935302734375,-0.11036292040459811,-0.029651626420021057,0.0966025444690138
1744926472691894300,1.806894287109375,-0.17391681642644105,-0.06166004509925842,0.07628050846289842
1744926472701854500,1.8168544921875,-0.19722754938714204,-0.04633446567356586,0.0343005847370252
1744926472711813400,1.8268134765625,-0.16794073769152162,-0.05312719455361366,0.014122596844099462
1744926472721772500,1.8367724609375,-0.12013729544393717,-0.030112229669094083,-0.015279840587824582
1744926472731732500,1.846732421875,-0.09605272856652736,0.006381809991598129,-0.03075388857349753
1744926472741691400,1.85669140625,0.02177694752216339,0.03042787148952484,-0.06454192067850381
1744926472751651300,1.8666513671875,0.06031330666542053,0.04487666808068752,-0.0592471387386322
1744926472761610200,1.8766103515625,0.08597206405699252,0.08547054427564144,-0.058493507359735665
1744926472771569200,1.886569091796875,0.15600070905089378,0.09459434645175933,-0.057229551838524635
1744926472781529300,1.896529296875,0.1608277638811618,0.11206921286582947,-0.04633289477098733
1744926472791488500,1.906488525390625,0.14103643721826373,0.09598901568055153,-0.0032303236907348033
1744926472801447400,1.916447509765625,0.139987804948166,0.07373918994963169,0.019972090057283638
1744926472811407400,1.926407470703125,0.09154263073094189,0.06839899796545505,0.05247121486291289
1744926472821366300,1.9363662109375,0.00903086319565773,0.03988952731788158,0.07274506434574723
1744926472831325200,1.9463251953125,-0.04314582570008933,-0.03482406062185764,0.04818199323639273
1744926472841285400,1.956285400390625,-0.12875022548846898,-0.05008943429291248,0.04479359290711581
1744926472851244500,1.96624462890625,-0.17925474338829517,-0.01712707588970661,0.06699859311562031
1744926472861204500,1.97620458984375,-0.1203717617869377,-0.04206862492263317,0.09119728789199143
1744926472871163400,1.986163330078125,-0.14459427583031356,-0.027615736678242683,0.10101389463786035
1744926472881122300,1.996122314453125,-0.14633037890791892,-0.0005909516304731368,0.10220544250998645
1744926472891082200,2.006082275390625,-0.059406713214516634,-0.0094809450507164,0.0793343796081841
1744926472901042200,2.016042236328125,-0.009906476986408234,0.025171850657463073,-0.01044010893907398
1744926472911001000,2.0260009765625,0.0672901599407196,0.0511386510848999,-0.14590239928681403
1744926472920961000,2.0359609375,0.15939568525142966,0.09532675237953663,-0.2846532097859308
1744926472930920200,2.045920166015625,0.197745654977113,0.16507131973505018,-0.31654132655374706
1744926472940880100,2.055880126953125,0.19590828348211942,0.11585282305777073,-0.23284367370214312
1744926472950839000,2.065839111328125,0.12819039964862167,0.06841185744702816,-0.028738237902149556
1744926472960798000,2.0757978515625,0.016814868135377765,0.03979483477175236,0.17919990792851895
1744926472970758100,2.085758056640625,-0.0424245987534523,0.0008387889117002486,0.3061981751831248
1744926472980717000,2.095717041015625,-0.11417692573480308,-0.03661562021374702,0.35420535984188317
1744926472990676200,2.10567626953125,-0.18686105367355046,-0.053555064576864236,0.3416092419127002
1744926473000636200,2.11563623046875,-0.16258585959486663,-0.09709610013961792,0.1732992690499872
1744926473010595000,2.125594970703125,-0.10622392090372741,-0.004707154777646065,-0.13035115787908433
1744926473020554000,2.135553955078125,0.0073584730040282004,0.06693477063179015,-0.39539106445014477
1744926473030514000,2.145513916015625,0.1154178657066077,0.0874158331245184,-0.4462405598627403
1744926473040473300,2.155473388671875,0.1422452284861356,0.107898064661026,-0.3498022660447284
1744926473050433300,2.165433349609375,0.1726479655344039,0.09693243401050566,-0.14087598595954476
1744926473060392200,2.17539208984375,0.14371172084212303,0.08232581650912761,0.09971282197665422
1744926473070351000,2.18535107421875,0.03304645649008453,0.07901099287271499,0.3077602734006941
1744926473080311000,2.19531103515625,-0.1314384416591376,-0.02172550959587097,0.3971137965895235
1744926473090270000,2.20527001953125,-0.260090029078722,-0.1098538749039173,0.26997188308052716
1744926473100229000,2.21522900390625,-0.2543710669100284,-0.08079203107059002,0.06322685602456331
1744926473110189300,2.225189208984375,-0.0967827233415097,0.002345686343312263,-0.21120671917255968
1744926473120148200,2.235148193359375,0.03531038283407688,0.0930319194406271,-0.4543701633697375
1744926473130107100,2.245107177734375,0.1699373914014548,0.1528799466818571,-0.43423579542282964
1744926473140067000,2.255067138671875,0.26562486685216424,0.1692670178592205,-0.14984218642115593
1744926473150026000,2.26502587890625,0.2385054623235017,0.13033318383097647,0.2302321760294959
1744926473159986000,2.27498583984375,0.20051029738485812,0.08380114975869656,0.4525782749842852
1744926473169945000,2.284945068359375,0.1870475892215967,0.038376200145483014,0.4307541638521477
1744926473179904300,2.294904296875,0.13326974873952566,0.04844400517344474,0.2185094068687409
1744926473189864200,2.3048642578125,0.07412555891871452,0.06794248636960983,-0.03475033779852092
1744926473199823000,2.314822998046875,0.036334538250043985,0.04992927529513835,-0.23524361098334193
1744926473209782000,2.324781982421875,-0.03762918117046356,0.023473814567923544,-0.23466055039837955
1744926473219742000,2.334741943359375,-0.139220839163661,0.0032137013494968414,-0.05148961994703859
1744926473229701000,2.344701171875,-0.2068202111840248,-0.063085693988204,0.20686989554464816
1744926473239661300,2.354661376953125,-0.2719815424025059,-0.13047989882528782,0.31783246234282847
1744926473249620200,2.3646201171875,-0.3353413771569729,-0.12360241427123546,0.256555352146551
1744926473259579100,2.3745791015625,-0.2512175713151693,-0.09581307459175586,0.1678803127411753
1744926473269539000,2.3845390625,-0.1465800428200513,-0.007120061138272285,0.02011149852797389
1744926473279498000,2.394498046875,-0.045163741393759844,0.03985620957016945,-0.15119177439920603
1744926473289457200,2.40445703125,0.04556925345472991,0.030140871241688728,-0.20691515945848077
1744926473299417000,2.4144169921875,-0.015358970238640903,0.03793079446554184,-0.10862699999008327
1744926473309376000,2.4243759765625,-0.08932005931064486,-0.005894318735599518,0.05399648820143193
1744926473319335200,2.434335205078125,-0.061464157200977206,-0.06449965243935585,0.10817205929681659
1744926473329295000,2.444295166015625,-0.0810316119801253,0.024990064349770545,0.14670845497269183
1744926473339254000,2.45425390625,0.035121070807054636,0.06394669473171234,0.20182156264651566
1744926473349214000,2.4642138671875,0.22789156772010027,0.09833353298008442,0.17028865252453834
1744926473359173000,2.474173095703125,0.31088140109591184,0.1551151583880186,0.0026215076100081203
1744926473369132000,2.484132080078125,0.38376952717415985,0.1524573373556137,-0.2150421326169744
1744926473379092200,2.49409228515625,0.3598223229408264,0.20993045215904713,-0.3428054294273257
1744926473389051100,2.504051025390625,0.17578144125454126,0.20068682299554347,-0.32351288259942085
1744926473399010300,2.51401025390625,-0.021568930794671176,0.030935821011662482,-0.24261187472902238
1744926473408970200,2.52397021484375,-0.23769699548482892,-0.05448328533768654,-0.1376513613572344
1744926473418929200,2.53392919921875,-0.3052425914913416,-0.11453121906518936,-0.023862010167911646
1744926473428889000,2.54388916015625,-0.25227321784794327,-0.07742343142032623,0.05369556902609765
1744926473438848000,2.553847900390625,-0.1285550682425499,-0.004719429737329483,0.1008656818062067
1744926473448807000,2.563806884765625,0.010069631658867002,0.03353752794265747,0.10778105068523436
1744926473458767000,2.57376708984375,0.0537100359428674,0.028833880296349524,0.06200323251374065
1744926473468726300,2.583726318359375,0.035179522996023296,0.022305939832329747,0.03450794387739151
1744926473478685200,2.593685302734375,0.05705459713041782,-0.00896422770023346,0.01943498750589788
1744926473488645000,2.60364501953125,0.08054185570180415,0.06220248141288757,0.024975670498237013
1744926473498604000,2.61360400390625,0.12318565016388892,0.10521744727492331,-0.04968063429631293
1744926473508563000,2.62356298828125,0.1636988623380661,0.07572130367755889,-0.1486902764396742
1744926473518523100,2.633523193359375,0.08014028916358948,0.08247311602532863,-0.1310260979985818
1744926473528482300,2.643482421875,-0.04841302551329136,0.023725158980488777,-0.024324293917417524
1744926473538442200,2.653442138671875,-0.2065940012127161,-0.1102156939536333,0.03485745143480599
1744926473548401200,2.663401123046875,-0.33498423428237434,-0.1510065540254116,0.06017298487927764
1744926473558360000,2.673360107421875,-0.2711334011405706,-0.08241641740202903,0.04165606206636876
1744926473568320000,2.683320068359375,-0.057255672660470006,0.025512042397260664,0.054937933770008385
1744926473578279000,2.69327880859375,0.06601648674309253,0.11559621794819831,0.09797986070420592
1744926473588238000,2.703238037109375,0.18422259492874143,0.09829787714481353,0.17070888723060487
1744926473598198300,2.7131982421875,0.2722234613995999,0.09066285222172736,0.09494078526925295
1744926473608157200,2.7231572265625,0.2173731693804264,0.15065642541348934,-0.08232990816235541
1744926473618117000,2.7331171875,0.1771785216361284,0.13101824348568916,-0.20245218870025128
1744926473628076000,2.743075927734375,0.054715340527892106,0.07980711168646812,-0.10829086337089538
1744926473638035000,2.753034912109375,-0.13850889150202272,-0.013885317489504813,0.05409052316043526
1744926473647995000,2.762994873046875,-0.16847732878625393,-0.06083645375669002,0.16258198713734745
1744926473657954300,2.772954345703125,-0.16073482490070162,-0.05385609335005283,0.1049080890648067
1744926473667913200,2.782913330078125,-0.11175006391406059,0.028422961407899856,0.027179208424501118
1744926473677873200,2.792873046875,0.03420380983166396,0.06739420483708382,0.07164002571329474
1744926473687832000,2.80283203125,0.16843517014496026,0.06618073739409447,0.11318345771804451
1744926473697791000,2.812791015625,0.20455051268637178,0.07051730529367924,0.010344137751311063
1744926473707751000,2.8227509765625,0.2124538331568241,0.08127484615147114,-0.1491554462660104
1744926473717710000,2.8327099609375,0.11566343796551228,0.07003799734413624,-0.16505871598180383
1744926473727670300,2.842670166015625,-0.043371524214744564,0.03815525087118148,0.02591415692474693
1744926473737629200,2.852629150390625,-0.1296989045154303,-0.02995382423698902,0.2532898110119626
1744926473747588000,2.862588134765625,-0.11497888976745307,-0.052287236598134036,0.3282686988243833
1744926473757548000,2.872548095703125,-0.05610993669144809,-0.014752163451910019,0.2322075677556917
1744926473767507200,2.882507080078125,-0.03924297304265201,0.06963818437159061,0.036800475261360405
1744926473777466000,2.892466064453125,-0.062465516263246534,0.06427402698993682,-0.1539966026868671
1744926473787426000,2.902426025390625,-0.022588775361701844,0.04408990161716938,-0.17815138525627552
1744926473797385200,2.91238525390625,0.029583894946053624,0.045428456744551655,-0.12333517816979438
1744926473807344000,2.92234423828125,0.09607377135455608,0.1034749875217676,-0.15175072345621882
1744926473817304000,2.932303955078125,0.2056529209703207,0.08443710957467555,-0.10789561697561294
1744926473827263200,2.94226318359375,0.18688984137661754,0.08945698356330395,0.0059427975198253985
1744926473837223200,2.95222314453125,0.04943484284169972,0.061252048820257185,0.09663772538024931
1744926473847182000,2.96218212890625,-0.06094517482817172,-0.034247722038626666,0.09969130426459014
1744926473857141000,2.97214111328125,-0.1530716698616743,-0.05583236185908317,0.13449545460958032
1744926473867101200,2.98210107421875,-0.21054427320845423,-0.029567455267906186,0.2771238737270236
1744926473877060000,2.99206005859375,-0.22630349481105802,-0.06251812323331833,0.29306718319226055
1744926473887019300,3.002019287109375,-0.21647702425830065,-0.11165303328037261,-0.007436616274155676
1744926473896979200,3.011979248046875,-0.11308036266975104,-0.0625233839303255,-0.3643671632962301
1744926473906937900,3.021937744140625,0.09115611563138663,0.08578735513985157,-0.4830065117999911
1744926473916896800,3.031896728515625,0.2998983443865552,0.17506839761435986,-0.39954544418323784
1744926473926856700,3.041856689453125,0.27135084328353404,0.15481412961483002,-0.2520221656963229
1744926473936815600,3.051815673828125,0.1604173564493656,0.0814548788934946,-0.10949384595248847
1744926473946775600,3.061775634765625,0.05527238988876342,0.02303483862876892,0.07432542887236923
1744926473956735000,3.07173486328125,-0.08166406466476618,0.027088497933745383,0.3887873188035562
1744926473966694000,3.08169384765625,-0.167031806153059,0.009022679889202117,0.6922771118108183
1744926473976653800,3.09165380859375,-0.06395955421328545,-0.040994273689389224,0.7933322517745196
1744926473986612700,3.10161279296875,0.020664017844200133,-0.0015700257956981658,0.5821344465607777
1744926473996572000,3.111572021484375,0.10163951572291552,0.060599722391366954,0.11166348160915077
1744926474006531800,3.12153173828125,0.0737163935959339,0.06610007337331772,-0.4938575030948966
1744926474016490800,3.13149072265625,-0.07717508268244565,0.04096797020435333,-0.9320121159292757
1744926474026449700,3.14144970703125,-0.1561521732855588,-0.02735094826221466,-0.7809562428694218
1744926474036409900,3.151409912109375,-0.163102723075822,-0.029208558827638623,-0.3021366978978738
1744926474046368800,3.16136865234375,-0.09110182816088198,0.017260931402444838,0.11282521886490285
1744926474056328700,3.17132861328125,0.1238234731433913,0.05719195977449417,0.37080914250984787
1744926474066287900,3.181287841796875,0.21866441476736218,0.14379063129723071,0.5805066626958548
1744926474076246800,3.191246826171875,0.27264029857218264,0.2016261496722698,0.6308512407936155
1744926474086206700,3.201206787109375,0.31223698042333126,0.11358546264767647,0.3957496320968494
1744926474096166000,3.211165771484375,0.19758359628319738,0.07834756052792072,-0.05117821591030806
1744926474106124800,3.221124755859375,0.004116276212409138,0.05175765976607799,-0.5345261250264942
1744926474116084700,3.231084716796875,-0.08370170797221362,0.013689502656459808,-0.7922023709617555
1744926474126044000,3.2410439453125,-0.10126841738820075,0.0037380174845457075,-0.672649670472741
1744926474136002800,3.2510029296875,-0.13156835164912045,-0.0017944822013378143,-0.2375960193283856
1744926474145962800,3.260962646484375,-0.11069039879329502,0.0035784430086612698,0.19425631502401083
1744926474155921700,3.270921630859375,-0.05831424180269241,-0.03178337775170803,0.4624549413543194
1744926474165881900,3.2808818359375,-0.10385375770628452,-0.02993336597084999,0.5791478319654241
1744926474175840800,3.2908408203125,-0.16301321816146372,-0.03655892159044742,0.538092950662598
1744926474185800000,3.300800048828125,-0.12166063255369662,-0.07032441307008266,0.24606292849835007
1744926474195759900,3.310759765625,-0.06905833865702152,-0.00694295100569725,-0.12292115400880574
1744926474205718800,3.32071875,-0.03360949720032513,0.05662614258527755,-0.32178755664415654
1744926474215677700,3.330677734375,0.07396423087716102,0.060248424735665315,-0.3782405711522326
1744926474225637600,3.3406376953125,0.11479834556877612,0.08638006033599376,-0.32654863356612623
1744926474235596800,3.3505966796875,0.12761917563192546,0.09934767845869064,-0.1464247426604852
1744926474245556000,3.360555908203125,0.09948387205898761,0.06826806506216526,0.08966781330239028
1744926474255516000,3.370515869140625,0.009791983761265874,0.03267009745836258,0.24026640758141873
1744926474265474800,3.380474853515625,-0.053841407237574454,0.02307400159537792,0.27525420739762485
1744926474275434800,3.390434814453125,-0.032649566126987335,0.03345277226865291,0.23184454312957822
1744926474285393700,3.4003935546875,-0.029619404650852083,0.02482990535199642,0.08168185604978352
1744926474295352600,3.4103525390625,-0.019123145077750085,-0.018587796092033385,-0.11467449999339878
1744926474305312800,3.420312744140625,0.03789404265172779,0.01539163039922714,-0.24701909671202302
1744926474315272000,3.43027197265625,0.12163316002488135,0.07629764226078986,-0.22261165455579757
1744926474325230800,3.44023095703125,0.11606083978526294,0.09697393506467342,-0.14255392910912631
1744926474335190800,3.450190673828125,0.05904905888326466,0.044347091248631475,-0.05745265653729439
1744926474345149700,3.460149658203125,0.06796944744177162,0.03088496760725975,0.13261223467886446
1744926474355108900,3.47010888671875,0.043729836133122445,0.07445639830827712,0.41455227651596066
1744926474365068800,3.48006884765625,0.008199161611869931,0.0701964027762413,0.5372256297761574
1744926474375028000,3.490028076171875,-0.04281673987619579,0.003839139771461487,0.39756150382440536
1744926474384988000,3.49998779296875,-0.12763788033239543,-0.040004093608260155,0.0398065982747823
1744926474394946800,3.50994677734375,-0.1389285051535815,-0.05245557890236378,-0.35844749092366546
1744926474404905700,3.51990576171875,-0.12158756731748581,-0.009557517418265342,-0.5723059667140246
1744926474414865700,3.52986572265625,-0.08671732946634292,0.029804186633229254,-0.525658635699004
1744926474424824800,3.539824951171875,-0.046701618485525245,0.0038116672426462173,-0.29223153608571734
1744926474434783700,3.54978369140625,-0.06278050049655139,0.029164135164022446,-0.020028386821784077
1744926474444744000,3.559743896484375,-0.01630874524414539,0.07256079382002353,0.1906356403088197
1744926474454702800,3.569702880859375,0.0660878714788705,0.07857844667434692,0.3565934240221977
1744926474464661800,3.579661865234375,0.09355448201000689,0.08834171579778194,0.46694118339028207
1744926474474621700,3.58962158203125,0.1335837831247598,0.02978606645464897,0.3820066822201013
1744926474484580900,3.599580810546875,0.1346404525708407,-0.0022609306693077086,0.1253140770273283
1744926474494540800,3.609540771484375,0.028584289449453352,0.061519759845733636,-0.12012052697222679
1744926474504499700,3.619499755859375,-0.02347965978682041,0.045293432188034055,-0.23272180088814345
1744926474514459000,3.629458984375,-0.03859071967899799,-0.014385083705186843,-0.24703400202021
1744926474524418800,3.639418701171875,-0.13395897311270236,-0.010384615892171859,-0.1849993514548987
1744926474534377700,3.649377685546875,-0.09777297648787497,-0.011465396866202354,-0.06079663320295512
1744926474544337000,3.6593369140625,0.0035498014360666272,0.04730126487910747,0.020742453375272453
1744926474554296800,3.669296875,0.01916004302203655,0.0812280844002962,0.01005618765540421
1744926474564255700,3.679255859375,0.07035480820834636,0.06691781949698924,0.03031410891674459
1744926474574214700,3.689214599609375,0.1328682552665472,0.06643091276288032,0.07312646487876773
1744926474584174800,3.6991748046875,0.10236140025667846,0.08056991275250912,0.08314422021992504
1744926474594133800,3.7091337890625,0.05207980439253151,0.06805646813809871,0.060714763605780896
1744926474604093700,3.71909375,0.07560965999662876,0.05311608863770961,0.02080528947841376
1744926474614052900,3.729052978515625,0.06311082842946052,0.04314531424343586,-0.0387987364064902
1744926474624011800,3.73901171875,0.013663783693313598,0.05178513229489326,-0.09404200979862362
1744926474633971700,3.7489716796875,-0.02911043221540749,0.02557224815189838,-0.1445635153658688
1744926474643930600,3.7589306640625,-0.08982413637526333,-0.003573182311654091,-0.13633969423677772
1744926474653889800,3.768889892578125,-0.12617379912920296,-0.01563011533021927,-0.006285911869071423
1744926474663849700,3.778849609375,-0.05566043935827911,-0.04891863694787025,0.08185776060596107
1744926474673809000,3.788808837890625,-0.0799170018017292,-0.015898995399475098,0.13624149455931037
1744926474683767800,3.798767822265625,-0.09202303465902804,0.01632978803217411,0.21360453756190836
1744926474693727700,3.808727783203125,0.01260755263864994,0.02871639139652252,0.29607527896706015
1744926474703686700,3.818686767578125,0.04159983836710453,0.06785831521749495,0.2661262405030429
1744926474713646800,3.828646728515625,0.02125321590900421,0.04716448675692081,0.08498115332350134
1744926474723605800,3.838605712890625,0.08274944874867797,0.010148469048738479,-0.1412177486019209
1744926474733565000,3.84856494140625,0.07057276180796325,0.07058978600800037,-0.2931991755414754
1744926474743524900,3.85852490234375,-0.038411929045990105,0.08473696930408477,-0.29843470157478
1744926474753483800,3.86848388671875,-0.15237725785672665,-0.02301262679696083,-0.19686960279494523
1744926474763442700,3.878442626953125,-0.2248410210430622,-0.0930056159555912,0.02601001851465553
1744926474773402600,3.888402587890625,-0.2095084273546934,-0.05332359390854835,0.2052120818676427
1744926474783361800,3.89836181640625,-0.056959904584288595,0.011108253991603851,0.3234439090164378
1744926474793321000,3.908321044921875,0.09611410336494446,0.06513210512399673,0.3039291342725977
1744926474803281000,3.918281005859375,0.1723825925964862,0.10041910708248615,0.14112206967510282
1744926474813239800,3.92823974609375,0.24876615957506,0.09452245025932789,-0.08655874137114733
1744926474823199700,3.93819970703125,0.2572130123376846,0.10925649353265762,-0.2497146559389308
1744926474833158700,3.94815869140625,0.16044249089062212,0.17335048778057097,-0.2809746308710426
1744926474843117800,3.958117919921875,0.08136259750016034,0.12774258281588555,-0.13861640699710695
1744926474853078000,3.968078125,0.035119317241385575,0.0620791472941637,0.04177954231556505
1744926474863037000,3.978036865234375,0.016771175124123693,0.04819266076087951,0.11685805457755923
1744926474872995800,3.987995849609375,0.0441244614738971,0.0012637363255023955,0.11729089303687214
1744926474882955800,3.997955810546875,-0.04586392555236816,-0.022720950374007225,0.04343151077367365
1744926474892914700,4.007914794921875,-0.14570136028937994,-0.05860182657241821,-0.08948840161487459
1744926474902873600,4.01787353515625,-0.2111456001024693,-0.08913783461153507,-0.20881861845962701
1744926474912833800,4.027833740234375,-0.25853987702727316,-0.06098609136044979,-0.1994664874203503
1744926474922792700,4.037792724609375,-0.1975391726195812,-0.04164250846505165,-0.04607102896440774
1744926474932752600,4.047752685546875,-0.1357312434822321,-0.007182020458579063,0.13342972507420928
1744926474942711600,4.057711669921875,-0.10296060825884341,-0.027503508475422857,0.24724052091035992
1744926474952670500,4.06767041015625,-0.03251052298247814,0.000609071809053421,0.2846686630833894
1744926474962630400,4.07763037109375,0.054475102031230925,0.09670330142974853,0.22415702083427458
1744926474972589800,4.08758984375,0.19155016133785246,0.13434300399422644,0.10548987100813537
1744926474982548700,4.097548828125,0.26444354811310766,0.100160163885355,-0.10581563236378133
1744926474992508700,4.1075087890625,0.1777297988433391,0.07653086649477481,-0.3023358371991664
1744926475002467600,4.117467529296875,0.039085225197672845,0.055334933730959886,-0.3059613342199474
1744926475012426500,4.127426513671875,0.004074117571115494,0.06044657765626907,-0.10449147108793258
1744926475022386400,4.137386474609375,-0.06850998405925929,0.0706324561059475,0.12055709175858646
1744926475032345600,4.147345703125,-0.07726612196676433,0.01782207241654396,0.23170970123615114
1744926475042305800,4.157305908203125,0.07430858733542263,0.0065688569962978356,0.21922471553124487
1744926475052264700,4.1672646484375,0.12233575533628463,0.08729892874658107,0.09163830965775996
1744926475062223600,4.1772236328125,0.1699772119551897,0.12504033811986445,-0.049026152442954475
1744926475072183600,4.18718359375,0.21573877311162648,0.07269640289843082,-0.1753090379698202
1744926475082142500,4.197142578125,0.12464987749755382,0.04789046294391155,-0.2714907632108778
1744926475092101600,4.2071015625,0.09236373785547912,0.05214987395405769,-0.28658764844723045
1744926475102061600,4.2170615234375,0.02965213787667453,0.05407879619002342,-0.2677046688009053
1744926475112020700,4.227020751953125,-0.10302782827615738,0.04766016131937503,-0.13723046906404196
1744926475121979600,4.236979736328125,-0.13463818754851817,0.010083587118983267,0.19720409544631837
1744926475131939600,4.246939697265625,-0.14224172135479748,-0.000800210466980934,0.4890891927145421
1744926475141898800,4.256898681640625,-0.10843355977721511,-0.021322189491987227,0.6423136419851333
1744926475151858700,4.266858642578125,-0.0771370156943798,-0.06741290953755379,0.4879055358879268
1744926475161817600,4.276817626953125,-0.08324176231026649,-0.08872925381064414,0.07568469799421727
1744926475171776500,4.286776611328125,-0.1460492969442159,-0.07607961559593678,-0.4040739909909665
1744926475181736700,4.29673681640625,-0.14278642269074915,0.008343465453386305,-0.6489113597497344
1744926475191695600,4.306695556640625,-0.12699790192842483,0.0413093309879303,-0.4554454279184341
1744926475201654800,4.31665478515625,-0.08530570910274982,0.029802433067560193,-0.008902268379926682
1744926475211614700,4.32661474609375,-0.014050225727632641,0.030500936725735662,0.3728129200803116
1744926475221573600,4.33657373046875,0.10877893914878367,0.06493570576906203,0.4584344901992008
1744926475231532500,4.346532470703125,0.24813882145695387,0.13546353245675563,0.2848024455308914
1744926475241492500,4.356492431640625,0.24558752953894436,0.18555530483722685,0.04250014820769429
1744926475251451600,4.36645166015625,0.20624920636303723,0.11562018334567546,-0.18859090967345982
1744926475261411600,4.37641162109375,0.1797849778074771,0.05632219120264053,-0.31032778580114245
1744926475271370800,4.386370849609375,0.09685242757685482,0.06649637921452523,-0.3119605381021276
1744926475281329700,4.39632958984375,0.040624855855107306,0.050095279511809344,-0.22992398686315862
1744926475291289600,4.40628955078125,-0.06665127751529216,0.0026607436418533323,-0.07770345393810421
1744926475301248500,4.41624853515625,-0.1333159259688109,-0.06629471916258335,0.11250391448866576
1744926475311207400,4.42620751953125,-0.15406952179260552,-0.05414718525111675,0.2955282395435497
1744926475321167600,4.436167724609375,-0.10090542929470539,0.0045960956186056135,0.3728507678726688
1744926475331126800,4.446126708984375,-0.025278233641386032,0.018393150302767752,0.3571997193522751
1744926475341085700,4.456085693359375,-0.0354226110368967,-0.03182254071831703,0.17083700712230054
1744926475351045600,4.466045654296875,-0.06889343041889369,-0.02782674908041954,-0.06853877176232635
1744926475361004500,4.476004638671875,-0.017243980267643927,0.0541407555103302,-0.26040194457210597
1744926475370963500,4.48596337890625,0.0010363573104143142,0.08362345510423183,-0.3209945796355605
1744926475380923400,4.49592333984375,-0.036775706146284934,0.036703883019089695,-0.1886832275994122
1744926475390882800,4.5058828125,-0.10849186583571135,-0.0476093079149723,0.0599586845414713
1744926475400842800,4.5158427734375,-0.09157470636963844,-0.03948094651699066,0.28050226411893964
1744926475410801700,4.5258017578125,-0.04707746606059372,0.023217209458351134,0.3417249772468582
1744926475420760600,4.535760498046875,-0.019108605095744132,0.036812019568681714,0.2055753622220829
1744926475430720500,4.545720458984375,-0.0001315174251794815,0.012872341054677962,-0.03357263578865677
1744926475440679400,4.555679443359375,0.03026888153553009,0.014257657933235168,-0.2211531263105571
1744926475450638600,4.565638671875,0.08251103688292205,0.07011223162412643,-0.28649701102171093
1744926475460598800,4.575598876953125,0.1299918230473995,0.11306874529719352,-0.2032018745563924
1744926475470557700,4.5855576171875,0.11223455949537456,0.08970774345397949,-0.04020012763701379
1744926475480516600,4.5955166015625,0.10479140388257802,0.0478226584047079,0.05028218038603663
1744926475490476500,4.6054765625,0.06116619716770946,0.02824409770965576,0.06440985526405274
1744926475500435700,4.615435791015625,0.00874853912293911,0.04620177920460701,0.029097243940271435
1744926475510395600,4.625395751953125,-0.05037811504118144,0.060384618335962294,-0.00533617339618504
1744926475520354600,4.6353544921875,-0.04169394639134407,0.026997312518954274,-0.007246938920952379
1744926475530313700,4.645313720703125,-0.023995719550177454,0.008871288719773293,-0.013354498548433184
1744926475540273700,4.655273681640625,0.04626673419959843,0.050720133411884305,0.04132935086265206
1744926475550232600,4.665232666015625,0.1341530343800783,0.11899930438995361,0.12455229887459426
1744926475560191700,4.675191650390625,0.14804945778548717,0.09149462687075137,0.11891882303226739
1744926475570151700,4.685151611328125,0.09532909046709537,0.035872692891955375,-0.009876447174325585
1744926475580110600,4.695110595703125,0.03989486108012497,0.04220423400104046,-0.05234331416692584
1744926475590069500,4.705069580078125,-0.00014028525352478027,0.05763853449821472,-0.04366225078962743
1744926475600029700,4.71502978515625,-0.07783844196200371,0.03224865717589855,0.005252879026904702
1744926475609988600,4.724988525390625,-0.13200199382603167,-0.0460585713416338,0.00016545622739940882
1744926475619948500,4.734948486328125,-0.12696283061504363,-0.06536240674853325,0.0020387392859905957
1744926475629907700,4.74490771484375,-0.05861176344454288,0.009013327538967133,0.009974792982265352
1744926475639866600,4.75486669921875,0.009444120171666145,0.050321489483118056,-0.026561661048047244
1744926475649826600,4.76482666015625,-0.008050035464763641,0.036165538358688354,-0.15336992215588688
1744926475659785500,4.774785400390625,-0.0537485413223505,-0.007281973701715469,-0.1308903427897021
1744926475669744600,4.78474462890625,-0.029041970089077947,-0.00452653751373291,-0.013283844465017318
1744926475679704600,4.79470458984375,-0.015644728377461434,0.07399813314676285,0.19856077075228093
1744926475689663700,4.804663818359375,0.027735563665628432,0.08870996458828449,0.3519954652400687
1744926475699622700,4.81462255859375,0.059049643405154346,0.0288742123067379,0.34219745359681547
1744926475709582600,4.82458251953125,0.07632979096472263,-0.010144377395510672,0.1372557131031528
1744926475719541500,4.83454150390625,0.11112060690410434,0.0680266575217247,-0.18507606995292006
1744926475729500400,4.84450048828125,0.11294139259047806,0.12197159819900989,-0.44595798006169496
1744926475739460600,4.854460693359375,0.04781396364159882,0.10428922651410102,-0.4696138366656378
1744926475749419800,4.864419677734375,-0.024379165909811852,0.046235681474208826,-0.2181314404018223
1744926475759379700,4.874379638671875,-0.05843523783385753,-0.01675415092408657,0.12077109983544795
1744926475769338600,4.884338623046875,-0.07911796037852764,-0.02739186479449272,0.3624894963234663
1744926475779297500,4.894297607421875,-0.06058160221278667,0.01981938371360302,0.421515356994234
1744926475789257500,4.904257568359375,-0.02267185053527355,0.02089548851251602,0.3500570810560137
1744926475799216400,4.91421630859375,-0.01576981606185436,-0.0010568155765533446,0.16822653236296026
1744926475809175800,4.92417578125,0.027909166666865347,0.0030249007791280746,-0.09482943384926766
1744926475819135700,4.9341357421875,0.07362221250645816,0.07296002227067946,-0.27473792843855915
1744926475829094700,4.9440947265625,0.06561901185810566,0.09623217678666114,-0.29292952828723934
1744926475839053600,4.954053466796875,-0.04130341270379722,0.046104164049029346,-0.19071224920898674
1744926475849013500,4.964013427734375,-0.10839373922348022,-0.04227788375914097,-0.0007858896806836128
1744926475858972700,4.97397265625,-0.13644092612154782,-0.05044482360184192,0.1244411301176995
1744926475868932600,4.9839326171875,-0.1322930126618594,0.01991641434729099,0.2010961709814146
1744926475878891800,4.993891845703125,-0.0730195704381913,0.04219663521647453,0.18849731310587375
1744926475888850700,5.0038505859375,-0.01682246691994369,0.032142858713865276,0.09173892048802226
1744926475898810600,5.013810546875,0.049743324268981814,0.020000000977516173,-0.06950016414038837
1744926475908769800,5.023769775390625,0.12362747564725578,0.07100362750589848,-0.22570103540588168
1744926475918728700,5.033728759765625,0.18201427122950553,0.15327274539172647,-0.32205417169108985
1744926475928689000,5.04368896484375,0.13685988218598066,0.14292203176915644,-0.2779243764549494
1744926475938648000,5.05364794921875,0.04152728458754718,0.05462181702554226,-0.07189710574690251
1744926475948607000,5.06360693359375,-0.02217208431959152,-0.015579261925816535,0.14069836437031627
1744926475958567000,5.07356689453125,-0.05323708466887474,-0.013975918382406234,0.2542566832827404
1744926475968525800,5.08352587890625,-0.045046690885350106,0.012589432460069655,0.29031225846093145
1744926475978485800,5.09348583984375,-0.036273017321154476,0.01504091726541519,0.26717154830489304
1744926475988445000,5.10344482421875,-0.06163841778934002,-0.001505143865942955,0.140477853487432
1744926475998403800,5.11340380859375,-0.07526121188513935,-0.020679215413331984,-0.07411554898135364
1744926476008364000,5.123364013671875,-0.04804419220089912,0.015414426752924919,-0.2834823028430343
1744926476018323000,5.133322998046875,-0.00635265696235001,0.06304594649970531,-0.3135262165162712
1744926476028281900,5.14328173828125,-0.006538534923270344,0.05877835218310356,-0.18071232178546487
1744926476038241800,5.15324169921875,-0.04751753797829151,0.005630699363350868,-0.07703991199545562
1744926476048201000,5.163200927734375,-0.05785363855361938,-0.02219780328273773,-0.020838351497799158
1744926476058159900,5.173159912109375,-0.05686696560382843,0.014594927063584328,0.06341423182282596
1744926476068120000,5.1831201171875,-0.07269238431043923,0.04533025706708431,0.195827034939453
1744926476078079000,5.193078857421875,-0.06470774223208427,0.007353285372257232,0.27212942644059657
1744926476088039000,5.203038818359375,-0.027988077121973036,-0.04005202440321445,0.25672168515678495
1744926476097997800,5.212997802734375,0.01982756702005863,0.00018821604847908018,0.1752166104460135
1744926476107957000,5.22295703125,0.11219546959400176,0.08334405364096165,0.05212557976301759
1744926476117917000,5.2329169921875,0.13545483769364655,0.1261053370028734,-0.09911072789765894
1744926476127875800,5.242875732421875,0.08863112719841301,0.0925958661109209,-0.21923330069649963
1744926476137834800,5.252834716796875,0.06131700381524861,0.03995499376952648,-0.2109409809084609
1744926476147795000,5.262794921875,0.011986790391802787,0.034904140120744706,-0.11650708571542054
1744926476157753900,5.27275390625,-0.0031231735218316316,0.05275193150043487,-0.03995060985535383
1744926476167713000,5.282713134765625,-0.007559621599316596,0.04876081603765487,0.028252609809674322
1744926476177673000,5.2926728515625,-0.05038045312874019,0.01649754581451416,0.10172741320207715
1744926476187631900,5.3026318359375,-0.05873334399759769,0.009648702833056449,0.14349208674207328
1744926476197590800,5.3125908203125,-0.04485029153041541,0.01236789866387844,0.09667089699748903
1744926476207551000,5.322551025390625,-0.026481764212250708,0.045724809342622755,0.009265694864839314
1744926476217510000,5.332510009765625,0.030023309276625512,0.0696603962033987,-0.08432959407959133
1744926476227469800,5.3424697265625,0.053141150013729925,0.05276011480689048,-0.12157255241144448
1744926476237429000,5.352428955078125,0.07448913153409957,0.02452887657880783,-0.18044114016126842
1744926476247388000,5.362387939453125,0.07818214083313942,0.06170037710964679,-0.18995069025196135
1744926476257347800,5.372347900390625,0.05399104484133422,0.08881693209409713,-0.07485211962759494
1744926476267306800,5.382306640625,-0.0009393266767263412,0.06876958484351635,0.14299268585257233
1744926476277265700,5.392265625,-0.06768354317247867,-0.0009855039060115813,0.3554173659801483
1744926476287225900,5.402225830078125,-0.05764145710766315,-0.04024783923625946,0.43955001271553334
1744926476297185000,5.41218505859375,-0.009116203391551971,-0.014157120168209076,0.3146839351840317
1744926476307144000,5.42214404296875,0.013621186660602688,0.03738602006435394,0.06788407071325928
1744926476317103900,5.432103759765625,0.016096052341535688,0.05144435603320598,-0.2572682131236419
1744926476327062800,5.442062744140625,0.01403152102716267,0.04746843813955783,-0.46380529651734975
1744926476337023000,5.45202294921875,0.009013985126093029,0.071067924913764,-0.4645136274497956
1744926476346982000,5.46198193359375,-0.009238879923149942,0.0771674108326435,-0.26651998906098306
1744926476356941000,5.471941162109375,-0.011779796577617525,0.04598082993030548,0.01857150254435837
1744926476366901000,5.48190087890625,-0.03196165692806244,0.008934417083859444,0.2878553668281063
1744926476376860000,5.49185986328125,-0.0214327371943742,-0.004237783700227737,0.4148540359415114
1744926476386818800,5.50181884765625,0.06750650610513985,0.03877835120558738,0.3558613834206015
1744926476396778800,5.51177880859375,0.13605799121856688,0.08458382456898689,0.115805440252088
1744926476406738000,5.521738037109375,0.10888181500136851,0.11241992599964142,-0.1024352326778695
1744926476416696800,5.53169677734375,0.08812785385139286,0.06560965950787068,-0.172996304048039
1744926476426657000,5.541656982421875,-0.018017229662463066,0.03677870182096958,-0.053399289493262767
1744926476436616000,5.551615966796875,-0.09204115483760833,-0.019994155758619306,0.10053469628617166
1744926476446574800,5.561574951171875,-0.11575988407731055,-0.04619418042004108,0.14834500666595996
1744926476456534800,5.57153466796875,-0.1402186910945922,-0.04004208753108978,0.11097973712868987
1744926476466494000,5.581493896484375,-0.0778296741336584,-0.014274609068036079,0.05061020676400512
1744926476476454100,5.5914541015625,-0.023975845805928108,0.012858312529325485,-0.09337744494266807
1744926476486413000,5.6014130859375,0.02533310563378036,0.04733107549548149,-0.2511521413961425
1744926476496372000,5.6113720703125,0.04072364005446434,0.04965338096320629,-0.2882967539200559
1744926476506332000,5.621331787109375,0.007456161224842071,0.056468321675062175,-0.1557795771135017
1744926476516290800,5.631290771484375,-0.04919277771413326,0.03172551008462906,-0.0279493525467813
1744926476526250000,5.64125,-0.057813306543231004,-0.015006430473923683,0.0700222152531147
1744926476536210000,5.6512099609375,-0.020586714824289084,0.005233809000253677,0.17924213963504879
1744926476546168800,5.6611689453125,0.04419628460109234,0.0625152006238699,0.20474519500825553
1744926476556127700,5.671127685546875,0.09465046055316924,0.1004646997898817,0.13941709238812328
1744926476566088000,5.681087890625,0.13764606412760913,0.07105681899785996,0.02542648300565779
1744926476576046800,5.691046875,0.14520407829172907,0.08711772696077823,-0.030404490613937376
1744926476586006800,5.7010068359375,0.09891637436933814,0.07369593532979488,-0.06393533308748156
1744926476595966000,5.710966064453125,0.05667874955534934,0.03382160558104515,-0.10878606300931423
1744926476605924900,5.7209248046875,-0.012578253478929399,0.010472878697514534,-0.17592702373769134
1744926476615885000,5.730885009765625,-0.08072356894426047,0.010526070189476013,-0.1275675185099244
1744926476625844000,5.740843994140625,-0.10946334121637046,0.025220950496196746,0.08182268929257988
1744926476635803000,5.750802978515625,-0.07871924338452517,0.0004021510601043701,0.2064326731711626
1744926476645762800,5.7607626953125,-0.1168078587602824,-0.04233984307944774,0.1590482965858653
1744926476655722000,5.770721923828125,-0.15899104997329414,-0.06226502525508403,0.032745573847368356
1744926476665681000,5.780680908203125,-0.11693470001034438,-0.020988427492976188,-0.07794347323905676
1744926476675640800,5.790640869140625,-0.0812233351599425,0.03958440689146518,-0.08071743146441876
1744926476685599700,5.800599853515625,-0.06847323224544524,0.02640110019147396,-0.06064725132752209
1744926476695559000,5.810558837890625,-0.028975334593653677,-0.01654547660946846,-0.026278094866313037
1744926476705518800,5.820518798828125,-0.017121888257935643,0.007850713500380515,0.02120258170031011
1744926476715478000,5.83047802734375,0.08667224821560085,0.06975158161818981,0.07059511977024376
1744926476725438000,5.84043798828125,0.12170271812975406,0.10406593915224074,0.12589293636120855
1744926476735396900,5.85039697265625,0.06378427071161567,0.10316577544212341,0.17271924067232758
1744926476745355800,5.860355712890625,0.04157229277305305,0.011126374170184136,0.15348072558660059
1744926476755316000,5.87031591796875,0.01851465779058635,0.002896305963397026,0.09529573618676512
1744926476765275000,5.88027490234375,-0.00376841262280941,0.02149637701511383,-0.0881800589626655
1744926476775234000,5.890234130859375,-0.005367153056338429,0.04312310241162777,-0.24609325057137757
1744926476785194000,5.900194091796875,0.00876191006116569,0.05385433978438377,-0.2667741830177605
1744926476795153000,5.91015283203125,-0.0164303257972002,0.052069209933280944,-0.17387034693621098
1744926476805111800,5.92011181640625,-0.024542978169396518,0.040838206344842906,-0.002161306219734251
1744926476815071700,5.93007177734375,0.023856749470904468,0.032242227435112,0.16361176857650278
1744926476825031000,5.940031005859375,0.045938744354248044,0.0473784217685461,0.26159729183651503
1744926476834991000,5.9499912109375,0.05156359849870205,0.05455927318334579,0.2225997814549133
1744926476844950000,5.959949951171875,0.08216682655513285,0.022642039918899536,0.1279684274610132
1744926476854909000,5.969908935546875,0.06649579469263553,0.052819736039638514,0.06532602026090026
1744926476864868900,5.979868896484375,-0.01224624504558742,0.03260112387537956,-0.058807030288316305
1744926476874827800,5.989827880859375,-0.09488543835282325,-0.02523380997776985,-0.16105200109109283
1744926476884787000,5.999786865234375,-0.19511567179970443,-0.03361585387587547,-0.1917386696472764
1744926476894747100,6.0097470703125,-0.19394253636710346,-0.012784078249335288,-0.08050883021503687
1744926476904705500,6.01970556640625,-0.14241225561611354,-0.00031739538609981536,0.07389416131563484
1744926476914664400,6.02966455078125,-0.06088789168298244,0.020053192469477652,0.18996303827688096
1744926476924624600,6.039624755859375,0.05671561096701771,0.05080488908588886,0.25642226381879296
1744926476934583600,6.04958349609375,0.13631576537191867,0.10199497809708118,0.20762849535960703
1744926476944542700,6.059542724609375,0.1199235065627843,0.09255553410053252,0.06078505236301571
1744926476954502700,6.069502685546875,0.059912945703603324,0.03463584457337856,-0.10070190607924014
1744926476964461600,6.079461669921875,0.02127886180691421,0.03250935393869877,-0.17269534834008662
1744926476974421500,6.08942138671875,0.058624549860879775,0.029507834035158154,-0.19517182243373243
1744926476984380700,6.099380615234375,0.0942815541755408,0.04693243156671524,-0.27239067119266835
1744926476994339600,6.109339599609375,0.06284428644776344,0.059607204222679136,-0.28966727508828044
1744926477004299500,6.119299560546875,0.05481120211780071,0.0773766696691513,-0.18586097325291484
1744926477014258700,6.1292587890625,0.047102527436614035,0.09737900873422622,-0.01359345840346068
1744926477024217600,6.139217529296875,0.02078435628823936,0.04449555980861187,0.09032704439610242
1744926477034177500,6.149177490234375,-0.035555845495127136,-0.04584346728622913,0.19773575463760643
1744926477044136400,6.159136474609375,-0.0390383903812617,-0.005786182186007499,0.23535865219775587
1744926477054095600,6.169095703125,0.041266076368093485,0.07104279047250747,0.16022658311761914
1744926477064055800,6.179055908203125,0.0961602805942297,0.09056348350048064,-0.019656192508526144
1744926477074014700,6.1890146484375,0.11666289733164012,0.11337035859227179,-0.1309098512077704
1744926477083973600,6.1989736328125,0.08532492525987327,0.08095745076537132,-0.10236399407256394
1744926477093933600,6.20893359375,0.05878185931444168,0.03360942413508892,-0.07044679734073579
1744926477103892500,6.218892578125,-0.037605288838222624,-0.006029927814006805,-0.12710713445656
1744926477113852400,6.228852294921875,-0.10140928716361522,-0.07743219924867152,-0.19424772985875605
1744926477123811800,6.238811767578125,-0.17780973221175372,-0.04120528609156608,-0.1724386336326599
1744926477133770800,6.248770751953125,-0.14440730189085005,0.019537059640884397,-0.02933740937169641
1744926477143730700,6.258730712890625,-0.1087520511418581,0.007726794859766959,0.1305142029536888
1744926477153689600,6.268689697265625,-0.16449264306426048,-0.05686053586304188,0.2119136983981356
1744926477163648500,6.2786484375,-0.12421272818930447,-0.05898001223504543,0.3278709682110697
1744926477173608400,6.2886083984375,0.006437266505882144,0.059251814913749694,0.4537476110246032
1744926477183567600,6.298567626953125,0.08474106095731258,0.1295043317914009,0.4194986103443429
1744926477193526500,6.308526611328125,0.11066161109022796,0.09388415235579013,0.29032109935451295
1744926477203486700,6.31848681640625,0.1786480096668005,0.07123802078366279,0.037196890700422224
1744926477213445600,6.328445556640625,0.16899057553801686,0.055446577411890026,-0.34389435717519373
1744926477223404500,6.338404541015625,0.10989541249070316,0.07733867574632167,-0.632902766495943
1744926477233364500,6.348364501953125,0.04926116677522659,0.08202244964838028,-0.5843091237187386
1744926477243323600,6.35832373046875,0.02231054294221103,0.0792155755341053,-0.2574095578230917
1744926477253283600,6.36828369140625,-0.036878034009598194,0.004651625198125839,-0.0007264876436442136
1744926477263242800,6.37824267578125,-0.03465685082878917,-0.0486333902657032,0.1000150928588584
1744926477273201700,6.38820166015625,0.0007160758474841713,0.027270868763327596,0.22055570840667932
1744926477283161600,6.39816162109375,-0.025056699845194815,0.09857494052052497,0.42232521207239476
1744926477293120500,6.40812060546875,-0.07752104657590389,0.021394670206308364,0.4648648155076429
1744926477303079700,6.41807958984375,-0.12490235442128032,-0.08285948499441147,0.25268000855054706
1744926477313039600,6.42803955078125,-0.053358665221929544,-0.07151683772504329,-0.12023217065315693
1744926477322998500,6.43799853515625,-0.03073233432881534,0.027304771032929418,-0.41092714482136067
1744926477332957400,6.44795751953125,-0.017244455191679296,0.09669102647006511,-0.43783476976286617
1744926477342917600,6.457917724609375,-0.030212109846994278,0.07136369298994541,-0.22614698907509445
1744926477352876500,6.46787646484375,-0.01619881859626621,0.03852466870546341,0.0964512994300574
1744926477362835700,6.477835693359375,0.06502097289972007,0.010415595552325248,0.3094159316532314
1744926477372795600,6.487795654296875,0.15960545554459094,0.03940203606188297,0.316710107249394
1744926477382754600,6.497754638671875,0.19341120596937833,0.10661270102560519,0.27731322228666394
1744926477392714500,6.507714599609375,0.16766951953470707,0.11195523109734058,0.23182989354971795
1744926477402673700,6.517673583984375,0.07504442732930183,0.02169336089193821,0.08607358820270747
1744926477412632600,6.527632568359375,-0.16941723998486996,-0.08391571604907512,-0.25087909660842267
1744926477422592500,6.537592529296875,-0.3133283558566123,-0.11190320864915847,-0.4802231281591579
1744926477432551700,6.5475517578125,-0.2127770372292027,0.01629062506556511,-0.2628877335058525
1744926477442510600,6.557510498046875,-0.12143208449482917,0.048747372034192084,0.05165010773837566
1744926477452470500,6.567470458984375,-0.0690115769058466,-0.008514145845174789,0.15454451889321208
1744926477462429400,6.577429443359375,0.08784837932288646,-0.05415712212324142,0.1773248713042587
1744926477472388600,6.587388671875,0.1665437303751707,0.09943944839537143,0.1858701794726774
1744926477482348800,6.597348876953125,0.04630399747006595,0.14795359619557857,0.12796952343955637
1744926477492307700,6.6073076171875,-0.019873159727454185,0.04137129030823707,0.06418024775926023
1744926477502266600,6.6172666015625,-0.061281347979977724,-0.01302665483355522,0.06372822967544198
1744926477512226600,6.6272265625,-0.03396419238951057,0.008805822268128394,-0.05610347041804343
1744926477522185500,6.637185546875,0.0055050271570682525,0.031140403673052788,-0.2045330500949174
1744926477532145400,6.6471455078125,0.02944353662729263,0.03853928175270557,-0.2602871956186369
1744926477542104800,6.657104736328125,0.038702363359928126,0.06303717867136001,-0.20186551138609646
1744926477552063700,6.667063720703125,0.1485971547961235,0.09679857849776745,-0.04709500171728432
1744926477562023700,6.677023681640625,0.2419727000426501,0.09317045112848281,0.12717040895111859
1744926477571982600,6.686982666015625,0.21000695146135984,0.0899205094218254,0.18526571077350526
1744926477581941500,6.69694140625,0.09982983595244586,0.08142740636467934,0.11195829983726144
1744926477591901400,6.7069013671875,-0.000136266665533185,0.060361821982264516,0.0001936594085767865
1744926477601860600,6.716860595703125,-0.03404836354162544,-0.003481412374973297,-0.04508632877599448
1744926477611819500,6.726819580078125,-0.10167290653586387,-0.02461070964336395,-0.12075440442897378
1744926477621779700,6.73677978515625,-0.05710903073139488,0.0006441431224346161,-0.15685951783731578
1744926477631738600,6.746738525390625,0.09085052028093486,0.054639352682232856,-0.08450922496281564
1744926477641698600,6.756698486328125,0.12244096927642821,0.12837445097863673,0.047993448394350706
1744926477651657500,6.766657470703125,0.12047522216141224,0.1067214220970869,0.2097973638312891
1744926477661616600,6.77661669921875,0.09461940782777964,0.02336509349644184,0.27177279502265156
1744926477671576600,6.78657666015625,-0.051399347847700116,-0.01568622943162918,0.15631912735030054
1744926477681535700,6.79653564453125,-0.16709135432057082,-0.04719020572006702,-0.004112221091799438
1744926477691494700,6.80649462890625,-0.19028576742522418,-0.0665402183562517,-0.12149086547736078
1744926477701454600,6.81645458984375,-0.1963395875714719,-0.021043372550606728,-0.10981617324203252
1744926477711413500,6.82641357421875,-0.13307334938459098,-0.02367313653230667,-0.02984554155692458
1744926477721372700,6.83637255859375,-0.023256299359723925,-0.012349193963408469,-0.0022886223938316107
1744926477731332600,6.84633251953125,0.03359481108784675,0.036066169637441636,0.028287352329492567
1744926477741291500,6.85629150390625,0.05617138455510139,0.09850947406888008,0.023300248099304734
1744926477751250400,6.86625048828125,0.092060444059968,0.07696984243392944,-0.032868944498710334
1744926477761210600,6.876210693359375,0.07073942361176014,0.06495850212275982,-0.0432657622853294
1744926477771169500,6.88616943359375,0.10592588780522345,0.06979542075991631,0.048161352307163174
1744926477781129500,6.89612939453125,0.1277788962382823,0.09612579380273818,0.1474002000965178
1744926477791088600,6.906088623046875,0.1258236705172807,0.08409750235676765,0.19940262840390205
1744926477801047600,6.916047607421875,0.10712006602585315,0.06919511677920819,0.20169669415783137
1744926477811007500,6.926007568359375,0.07415471194796264,0.040109892070293425,0.04066661263760179
1744926477820966700,6.935966552734375,-0.0166220489770174,0.010704349365830422,-0.2533982763551175
1744926477830925800,6.94592578125,-0.06286934782378376,0.004429506880044937,-0.4701128356963396
1744926477840885800,6.9558857421875,-0.0971013608366251,0.022094342908263204,-0.34199243254400785
1744926477850844700,6.9658447265625,-0.15577851766757667,0.005827683240175247,-0.06145502404645085
1744926477860803600,6.975803466796875,-0.13258585812859236,-0.02777355758845806,0.1198289601471275
1744926477870763500,6.985763427734375,0.01689334019906819,-0.010260697251558303,0.28615758646689354
1744926477880722400,6.995722412109375,0.12382628615498542,0.06626783115565776,0.3907463439168408
1744926477890681600,7.005681640625,0.11626958716511726,0.0852583628296852,0.3706635965593159
1744926477900641800,7.015641845703125,0.09809687467999756,0.04058744645416736,0.17736966029405593
1744926477910600700,7.0256005859375,0.045588031220436094,0.03393675639331341,-0.09546104628369212
1744926477920561000,7.035560791015625,-0.03572422433197498,0.028747371056675908,-0.3599870485158637
1744926477930519800,7.045519775390625,-0.10223119800575077,-0.009850947406888008,-0.4458028625652194
1744926477940478700,7.055478759765625,-0.13483582901246846,-0.01354687931537628,-0.25065621110536157
1744926477950438700,7.065438720703125,-0.142912167962268,-0.01794014583826065,0.061000923603400585
1744926477960397800,7.075397705078125,-0.12649528616853056,-0.06808920136392116,0.2973906358819455
1744926477970356700,7.085356689453125,-0.10802841304242611,-0.04359539609849453,0.3389588735343888
1744926477980317000,7.09531689453125,-0.04484802650809288,0.019267010527849196,0.2545694755589589
1744926477990275800,7.10527587890625,0.037830183635279534,0.07372866855561733,0.04653221673537045
1744926478000234800,7.11523486328125,0.0684013360530138,0.057252750051021574,-0.1536002603130415
1744926478010194700,7.125194580078125,0.09723046710900962,0.056335635206103324,-0.21422329051475972
1744926478020153900,7.13515380859375,0.07384674197733401,0.0714385117918253,-0.15400376308001576
1744926478030112800,7.14511279296875,0.02249875899069011,0.04843582186698913,-0.0822245115591213
1744926478040072700,7.15507275390625,-0.02320610354244709,0.0012386018842458725,-0.043818062405847014
1744926478050031600,7.165031494140625,-0.010740589722990988,0.020934066957235334,-0.011248356582038104
1744926478059991800,7.17499169921875,0.027046412357687948,0.06721124948561191,0.05638656167574226
1744926478069950700,7.18495068359375,0.16366327956803142,0.0982733272254467,0.1543727425228804
1744926478079910000,7.194909912109375,0.21213767987973986,0.09230535873174667,0.2471278177835047
1744926478089869800,7.204869873046875,0.15235511909015476,0.08135551017224789,0.24609222765807062
1744926478099828700,7.214828857421875,0.15774433784782885,0.06246785435080528,0.09046046151742339
1744926478109787600,7.22478759765625,0.10007891534268855,0.06096037239730358,-0.07079246897324919
1744926478119747800,7.234747802734375,0.0002139350116252899,0.07951952691674231,-0.14803546579275279
1744926478129706800,7.244706787109375,-0.04745725915841758,0.022537410500645637,-0.0982429686198011
1744926478139666000,7.254666015625,-0.11810257474593817,-0.008071662774682044,-0.04897643154971301
1744926478149625900,7.2646259765625,-0.12251220788173377,-0.017853636598587037,0.06042896893434226
1744926478159584800,7.274584716796875,-0.06387304497361183,-0.007439794611930847,0.1532639775633812
1744926478169543700,7.284543701171875,-0.05406652123034,0.013279752811789511,0.19387498755622654
1744926478179503600,7.294503662109375,-0.07661803332157432,0.00495265397131443,0.21451142327375708
1744926478189462800,7.304462890625,-0.07625555668473244,-0.02266834340393543,0.10965111887343228
1744926478199422700,7.314422607421875,-0.09799158767461776,-0.039303836384415626,-0.08358520545307546
1744926478209382000,7.3243818359375,-0.09838095231838524,-0.02115092457830906,-0.28508761914782227
1744926478219340800,7.3343408203125,-0.0037730887979269025,0.05129764103889465,-0.2865218532020226
1744926478229300700,7.34430078125,0.07793897972702979,0.1048521210938692,-0.12375720297414809
1744926478239259600,7.354259765625,0.13831314973421394,0.08804419415593147,0.054909474860504265
1744926478249218800,7.36421875,0.19514270593710242,0.06115677175223827,0.15647026279140264
1744926478259178800,7.3741787109375,0.2241395947754383,0.09720657477676868,0.11873824230097234
1744926478269138000,7.384137939453125,0.20307583702392876,0.14684066651761532,0.013091061839275062
1744926478279096800,7.394096923828125,0.09168291598446666,0.10201952801644802,-0.05565210992135107
1744926478289056800,7.404056884765625,-0.0668985302746296,0.02758300345242023,-0.02428516748342663
1744926478299015700,7.414015625,-0.17195296900756657,-0.021465981876850126,-0.032674335242062806
1744926478308975600,7.4239755859375,-0.18107151048667727,-0.050530748319625854,-0.004894201782345771
1744926478318934800,7.433934814453125,-0.16549677860550582,-0.06356850906908512,0.09673979751523584
1744926478328893700,7.443893798828125,-0.18454875814318655,-0.02750000134408474,0.19670407350230962
1744926478338854000,7.45385400390625,-0.12422200747430324,-0.048288522350788114,0.24100655842423438
1744926478348812800,7.463812744140625,-0.055173021167516705,-0.022847791624069212,0.11509736504796891
1744926478358771700,7.473771728515625,-0.005503858113288879,0.04510053996443748,-0.10206921237707138
1744926478368731600,7.483731689453125,0.09533259759843349,0.09147475312650204,-0.28451993879508225
1744926478378690800,7.49369091796875,0.1409165371656418,0.08129355085194111,-0.3378118589237332
1744926478388649700,7.503649658203125,0.08797522057294845,0.08864625170230865,-0.27957305697742846
1744926478398610000,7.51360986328125,0.12880173647999762,0.07424187877476215,-0.11874854449927806
1744926478408568800,7.52356884765625,0.14683021818883715,0.101989717400074,-0.0025624708991497753
1744926478418527700,7.53352783203125,0.08449972648210823,0.1026478890478611,0.09190415751971304
1744926478428487700,7.54348779296875,0.019431918765977024,0.04061491898298263,0.13586108040697872
1744926478438446800,7.55344677734375,-0.09735504333674908,-0.018574352088570594,0.1509452522922307
1744926478448406800,7.56340673828125,-0.17746501042731105,-0.04375964674949646,0.12739303872585295
1744926478458365700,7.57336572265625,-0.18401209398321805,-0.07426058347523212,0.05723543359003961
1744926478468324600,7.58332470703125,-0.17940321194827555,-0.10991349613666533,-0.10578998646587133
1744926478478284800,7.593284912109375,-0.20698789590112865,-0.04640636186599731,-0.2272328846156597
1744926478488243700,7.60324365234375,-0.12328845295123755,0.10403905114531517,-0.1644840578990057
1744926478498203000,7.613202880859375,-0.05977788461446762,0.002567220139503479,-0.2321056052185595
1744926478508162800,7.623162841796875,-0.20566936064846814,-0.008275076392292975,-0.2680614463493228
1744926478518121700,7.633121826171875,-0.021355507239699364,0.004568038567900657,-0.10054751923512667
1744926478528080600,7.64308056640625,0.20539624279551208,0.061273676130175585,0.15551643266528845
1744926478538040800,7.653040771484375,0.13430676363706587,0.19706687893271446,0.2986285071138292
1744926478547999700,7.662999755859375,0.2260514928113669,0.09855740486383438,0.3892717047870159
1744926478557959000,7.672958984375,0.2750339157104492,0.04304419195652008,0.39870512090157717
1744926478567918800,7.6829189453125,0.20725217286050318,0.13111118246614933,0.2981971664918586
1744926478577877800,7.692877685546875,0.19505429700128732,0.11947627425193785,0.14418134764786808
1744926478587837700,7.702837646484375,0.076187825210765,0.05700140563845634,-0.05259710626490414
1744926478597796600,7.712796630859375,-0.07984218299984931,0.002439209845662117,-0.19498236427623777
1744926478607755800,7.722755859375,-0.09961655852794647,-0.03302548676729202,-0.24236546221990138
1744926478617715700,7.7327158203125,-0.13545293799750507,-0.010361235016584395,-0.21851773630566892
1744926478627675000,7.7426748046875,-0.17057693141400812,-0.030244916138052937,-0.20027411400880663
1744926478637633800,7.7526337890625,-0.18218845875263212,-0.07923369571268558,-0.12656922818757593
1744926478647593700,7.76259375,-0.15346680665910242,-0.05117021526694297,-0.03890413300972432
1744926478657552600,7.772552734375,-0.08280052134878933,0.02580897951722145,0.03303553323727101
1744926478667511800,7.78251171875,0.00040792321376502514,0.07203355507552624,0.032718576242588455
1744926478677472000,7.792471923828125,0.09326514367461204,0.0818248812496662,0.034683483107388016
1744926478687431000,7.802430908203125,0.13419979613125324,0.06298983239829539,0.049621487987600264
1744926478697389800,7.812389892578125,0.17233634230196476,0.09782616797983645,0.05259327034000307
1744926478707349800,7.822349853515625,0.170312800585106,0.12737141141593455,0.06306300723236054
1744926478717308700,7.83230859375,0.13520692734718323,0.10841712009906768,0.09573073007054626
1744926478727268600,7.8422685546875,0.014934534281492232,0.054601358759403223,0.1478552138550207
1744926478737227800,7.852227783203125,-0.0566595333982259,0.0023018472015857694,0.16525113328136504
1744926478747186700,7.862186767578125,-0.09006254824101924,-0.029762685579061508,0.08668678819760679
1744926478757147000,7.87214697265625,-0.134003908232972,-0.010579846203327178,-0.08292498797867447
1744926478767105800,7.882105712890625,-0.1278179130744189,-0.011367197188735008,-0.30860377502013
1744926478777064700,7.892064697265625,-0.06251812323331833,-0.013548048359155655,-0.40803803578373044
1744926478787024600,7.902024658203125,0.007256839260458945,0.046366029855608934,-0.33516167320851237
1744926478796983800,7.91198388671875,0.11026121359579265,0.10991875683367251,-0.11937708819378166
1744926478806942700,7.921942626953125,0.1665004757553339,0.11222586473226547,0.101629286589846
1744926478816903000,7.93190283203125,0.0906049845546484,0.06900222455561161,0.3005764263112098
1744926478826861800,7.94186181640625,0.05480068072378635,0.004870236384868621,0.5560609343558549
1744926478836821800,7.95182177734375,-0.0009334083925932645,0.004209142127633094,0.6378733945153653
1744926478846780700,7.96178076171875,-0.03891739435009658,0.03000993833839893,0.43662963175680486
1744926478856739800,7.97173974609375,-0.013511808001995087,-0.007734393644332886,0.04411836052667349
1744926478866699800,7.98169970703125,-0.0700532679785043,-0.035004677885770795,-0.30505587328020484
1744926478876658700,7.99165869140625,-0.16358371152579784,-0.030540099692344665,-0.4932637019202113
1744926478886617600,8.00161767578125,-0.136485349785164,-0.01643383292853832,-0.4666208288621157
1744926478896577800,8.011577880859376,-0.08609532511048018,0.04286415921449661,-0.30787867561597376
1744926478906536400,8.021536376953126,-0.03245901199094951,0.0674865592956543,-0.18305760626997797
1744926478916495400,8.031495361328124,0.016191913931444285,0.027018355306982992,-0.03807115278430283
1744926478926455300,8.041455322265625,0.11751235376782715,0.08470774320960045,0.18138949039466679
1744926478936414500,8.05141455078125,0.21038111853599548,0.12575520839095114,0.4077454460453242
1744926478946373400,8.061373291015625,0.25420104410536587,0.10711305176317691,0.4067762722196057
1744926478956333300,8.071333251953124,0.25683833380639554,0.07826865007281303,0.11146620547138154
1744926478966292500,8.08129248046875,0.18180325882732867,0.07956102797091007,-0.2746539399495348
1744926478976252400,8.09125244140625,0.08373151858858764,0.10768939034640788,-0.47630266677979377
1744926478986211300,8.10121142578125,0.01603869613111019,0.09171732971072197,-0.383359923459962
1744926478996170200,8.111170166015626,-0.0903046133685857,0.0002776478976011276,-0.18918449165243653
1744926479006130400,8.12113037109375,-0.1981283706843853,-0.07458090147078036,-0.04231437984462827
1744926479016089300,8.13108935546875,-0.19687932047136128,-0.07534253349304199,0.09526548717897385
1744926479026048500,8.141048583984375,-0.16149112316071987,-0.012087912678718567,0.216421348548308
1744926479036008400,8.151008544921876,-0.19492460620701313,-0.011523849055171013,0.25888525639884175
1744926479045967400,8.16096728515625,-0.18625315090827643,-0.10012567709386348,0.16322729930356145
1744926479055926300,8.17092626953125,-0.09918803091756999,-0.06694529202580451,0.07437018132954835
1744926479065886200,8.18088623046875,-0.016313348354026674,0.07076981875002383,0.04858052756730467
1744926479075845400,8.190845458984375,0.06385952790491282,0.13644202210009096,0.07677779046054929
1744926479085804500,8.200804443359376,0.10106902235858142,0.05117255335450172,0.007777867459878325
1744926479095764500,8.210764404296874,0.08127491921670735,0.01231821430325508,-0.05783453199435025
1744926479105723400,8.220723388671875,0.10429740982055663,0.0456879844635725,-0.01718896214477718
1744926479115683300,8.230683349609375,0.14471307990439236,0.12911387116909026,0.026506569859944283
1744926479125642200,8.240642333984376,0.09499890866465865,0.11003156955838203,0.011518990216962992
1744926479135601400,8.250601318359376,0.03893558759391308,0.02767301982343197,-0.00579867634139955
1744926479145561300,8.260561279296875,0.025149711890891192,-0.014563362881541251,-0.0015865385390818117
1744926479155520500,8.2705205078125,0.027591844346001742,0.054226095706224435,0.0005568301651626825
1744926479165479400,8.2804794921875,0.03741108144037425,0.08695406083166599,-0.015484752042777836
1744926479175439400,8.290439453125,-0.020032076616212726,0.031138650107383727,-0.012908691009692847
1744926479185398300,8.300398193359374,-0.10900449153296649,-0.042159810337424275,0.031106757131777702
1744926479195357400,8.310357421875,-0.0933884047280997,-0.04467851516008377,0.077170004648529
1744926479205317400,8.3203173828125,-0.03669453066885471,0.023719898283481596,0.027994214601814744
1744926479215276500,8.330276611328125,-0.024843933877348897,0.07639759550392627,-0.010053666904754937
1744926479225235500,8.3402353515625,0.014963102788850664,0.056308162677288054,0.04280395345985889
1744926479235195400,8.3501953125,0.05527063632309436,0.030059622699022293,0.1472450460674241
1744926479245154300,8.360154296875,0.08656886090636252,0.043130116674304005,0.1734776578241959
1744926479255114200,8.3701142578125,0.11909516597986221,0.06947276467680931,0.14175134402196854
1744926479265073400,8.380073486328126,0.09851407717876136,0.08364332884848118,0.08091711875498295
1744926479275032300,8.3900322265625,0.04087620026767254,0.04428805453777313,-0.014070610928535461
1744926479284992500,8.399992431640625,-0.04107143057882785,0.000969137293100357,-0.1738427648095414
1744926479294951400,8.409951416015625,-0.06209551390707493,0.001685176607966423,-0.306429061329551
1744926479304910300,8.419910400390625,-0.031713235124945637,0.037433366337418554,-0.26482564276587217
1744926479314870300,8.429870361328126,-0.07767536035478115,0.04792670330107212,-0.14058573430869728
1744926479324829400,8.439829345703124,-0.08913900365531444,-0.00005319149196147918,-0.0017284677604213355
1744926479334788400,8.449788330078125,-0.05228614061959087,-0.04025193088948727,0.10987791336663066
1744926479344748300,8.459748291015625,-0.00871580589711666,0.027833178821206093,0.171283545313403
1744926479354707500,8.46970751953125,0.059307417558506124,0.06471534101665019,0.17824319172557443
1744926479364667400,8.47966748046875,0.09514562365896999,0.06774491797089577,0.07116382303629071
1744926479374626300,8.489626220703125,0.11087335414476691,0.03907470380365848,-0.08490048930272459
1744926479384585500,8.49958544921875,0.1310328565329313,0.05035948340594768,-0.198034701051563
1744926479394545400,8.50954541015625,0.09491649107821286,0.09633505263924598,-0.19841661304123698
1744926479404504300,8.51950439453125,0.010011179469898343,0.07368424489200115,-0.16728881312143057
1744926479414463200,8.529463134765624,-0.09750168526582419,-0.017119477105140685,-0.12159297414496541
1744926479424423400,8.53942333984375,-0.190241343761608,-0.07420271580815314,0.02417282968275249
1744926479434382300,8.54938232421875,-0.21867307299785316,-0.04434007698595523,0.22714904225710777
1744926479444341500,8.559341552734375,-0.2182218951642513,-0.05379413402974605,0.3275855753984302
1744926479454301400,8.569301513671874,-0.22755853637345133,-0.10091419712305068,0.30513851006235926
1744926479464260400,8.57926025390625,-0.19982874486148355,-0.09385200365185738,0.21964056632313875
1744926479474219300,8.58921923828125,-0.1206815583884716,-0.04517886589765548,0.10406144564021379
1744926479484179200,8.59917919921875,-0.06620828298814595,0.04884498718976974,-0.07973897835370153
1744926479494138400,8.609138427734376,0.060820671665668485,0.07534019540548324,-0.1925122113030404
1744926479504097500,8.61909765625,0.15810023861341177,0.09625672670602797,-0.15411573555450886
1744926479514057500,8.629057373046875,0.16418584213741122,0.11520283471643925,-0.04471464591939002
1744926479524016400,8.639016357421875,0.2094394537717104,0.09969546898305416,0.018524959988892076
1744926479533976300,8.648976318359376,0.19369594119489192,0.09880524214506149,0.044315344403497874
1744926479543935200,8.658935302734376,0.09239354847185313,0.08756488620638847,0.026845884816907344
1744926479553894400,8.668894287109374,0.009774375039339065,0.03729366560578346,-0.048867747010849415
1744926479563854300,8.678854248046875,0.002018427150323987,0.03536532789170742,-0.12747034174576402
1744926479573813500,8.6888134765625,0.03236431944482028,0.05587386291325092,-0.08648147488385438
1744926479583772400,8.6987724609375,0.062055766418576234,0.0895242035806179,0.009163476599380374
1744926479593732400,8.708732421875,0.05380699351131916,0.02340074933171272,0.05275905536096543
1744926479603691300,8.718691162109375,0.00895714037232101,-0.023815759873390196,-0.051429121931456025
1744926479613650400,8.728650390625,-0.05421966596543788,0.010579846203327178,-0.1892544150834903
1744926479623610400,8.7386103515625,-0.0534602989654988,0.03570727319717407,-0.2862520598173141
1744926479633569500,8.748569580078126,-0.023530440125986932,0.04959843590557575,-0.20715857629291712
1744926479643529500,8.758529541015625,-0.035976664723083376,0.055393970441818235,-0.055236332194693386
1744926479653488400,8.76848828125,0.007294833183288574,0.03663724752366543,0.0876670679392293
1744926479663447300,8.778447265625,0.02043013602308929,0.02202887645661831,0.21931834863144903
1744926479673407200,8.7884072265625,0.010808321196958423,0.07183657119870185,0.33371154746543613
1744926479683366400,8.798366455078124,-0.005943491639569401,0.02313070021867752,0.38604974706582723
1744926479693325300,8.8083251953125,-0.05964052197039127,-0.05935293720066547,0.19887425714824347
1744926479703285500,8.818285400390625,-0.06914367885291577,-0.023604162949323652,-0.07455182150676846
1744926479713244400,8.828244384765625,0.02416296587586403,0.03597966039776802,-0.22703184561822562
1744926479723203300,8.838203369140626,0.028879473003745076,0.09174304867386818,-0.27274094593506304
1744926479733163300,8.848163330078124,0.008405424773693083,0.04026303680539131,-0.156202844026871
1744926479743122400,8.858122314453125,-0.01708089866042137,0.0013444003462791442,0.09758150903638452
1744926479753081300,8.868081298828125,-0.07329553783535957,0.028970658418536185,0.2897845082597807
1744926479763041300,8.878041259765626,-0.10741934123337268,-0.004196282646059989,0.339132914927043
1744926479773000400,8.88800048828125,-0.16292612439990042,-0.04781447509825229,0.21084289082884788
1744926479782960400,8.89796044921875,-0.13045059966556727,-0.029618893194198605,-0.020674904564395545
1744926479792919300,8.907919189453125,0.045507367199659345,0.062011927276849746,-0.12595095015875996
1744926479802878500,8.91787841796875,0.18362937827594578,0.1519482187896967,-0.16217636547852307
1744926479812838400,8.92783837890625,0.21211714854836464,0.14715163216292856,-0.13546302100010216
1744926479822797300,8.93779736328125,0.22465280499458312,0.09326865080595016,-0.05808284419961273
1744926479832756200,8.947756103515625,0.18877777401506898,0.08603226981163024,0.005942030334845185
1744926479842716400,8.95771630859375,0.09196407101340591,0.08025543997585773,0.07037906586676836
1744926479852675300,8.96767529296875,-0.015455270219966769,0.044244799917936325,0.07257854867242276
1744926479862634500,8.977634521484376,-0.06719254478514194,-0.03645838382542133,-0.0428876862205565
1744926479872594400,8.987594482421875,-0.10090024166293442,-0.0705272421658039,-0.2281199696484953
1744926479882553300,8.99755322265625,-0.06258541631586849,0.048213119027018546,-0.3307232889022678
1744926479892513300,9.00751318359375,0.062187210778519506,0.14951426964104175,-0.16401709797438233
1744926479902472200,9.01747216796875,0.145765146240592,0.1295697982430458,0.10511431569401174
1744926479912432400,9.027432373046874,0.05594510151855647,0.01970774003267288,0.21364439464826135
1744926479922392300,9.037392333984375,0.02499941670000553,-0.07411036134958267,0.11191204954273998
1744926479932351200,9.047351318359375,-0.05219948524944484,0.006537877336144447,0.01871083794981241
1744926479942310400,9.057310302734376,-0.16177980390898883,0.040032735180854796,0.024073095635324716
1744926479952270300,9.067270263671874,-0.21058796621970832,-0.05513444272279739,0.12191599555425345
1744926479962229200,9.077229248046875,-0.16216156976819038,-0.09312193581163883,0.1851485506672412
1744926479972188400,9.0871884765625,-0.008087444865703583,-0.017097265273332597,0.12813479700386524
1744926479982148400,9.0971484375,0.1003174733389169,0.08920856176018714,-0.07945519297625869
1744926479992107300,9.107107177734376,0.05432553749270737,0.0894844560921192,-0.26359500499237326
1744926480002066400,9.11706640625,-0.0886047506481409,-0.0005412672698497772,-0.29796686486732216
1744926480012026400,9.1270263671875,-0.14773315837793052,-0.0180208098590374,-0.11426595572512596
1744926480021985300,9.1369853515625,-0.06018120471835136,0.02185702702105045,0.1531944925237447
1744926480031945500,9.146945556640626,0.016908501235581932,0.06705342857539653,0.30808366013616323
1744926480041904400,9.156904296875,0.11969137830734253,0.08212298741340637,0.28794947485234584
1744926480051863600,9.166863525390625,0.26540800923109054,0.07757306902408599,0.08782525417562574
1744926480061823500,9.176823486328125,0.3304962752133608,0.12238543969690799,-0.1371009244002402
1744926480071782400,9.186782470703125,0.20478665952980518,0.14656068053245544,-0.32861561256591226
1744926480081741300,9.1967412109375,0.03358728536851704,0.06676175215244293,-0.36845925491545345
1744926480091701200,9.206701171875,-0.07503215236961841,0.05146189168989658,-0.14149740579351783
1744926480101660200,9.21666015625,-0.08020692465901375,0.02756839040517807,0.18940544092673808
1744926480111619600,9.22661962890625,0.008270400217175483,-0.019328969848155974,0.302378324634023
1744926480121579500,9.23657958984375,-0.026281857725977895,-0.06642039136886596,0.10835881404057145
1744926480131538400,9.246538330078126,0.06684760380499065,-0.012787585380673408,-0.09530373683013021
1744926480141497300,9.256497314453124,-0.0933797099649906,0.07584580684006213,-0.032826712792180475
1744926480151457300,9.266457275390625,-0.24637130032777785,-0.007308277186751365,0.04233586102407425
1744926480161416200,9.276416259765625,-0.22971469149403273,-0.10206862785518168,-0.01319824854079634
1744926480171376400,9.28637646484375,-0.10929032273702323,0.03446282609403133,0.00003262362796813249
1744926480181335600,9.29633544921875,0.10385375770628452,0.1242325288683176,0.13310359839238226
1744926480191294500,9.30629443359375,0.11667524535655975,0.07593523868918418,0.14343085807412861
1744926480201254400,9.31625439453125,-0.042969957676529884,0.0020949264526367185,0.018002616615220905
1744926480211213300,9.32621337890625,-0.04265782298743725,-0.06172375798523426,-0.003695018593035638
1744926480221172200,9.336172119140626,0.039383331361413,-0.011665303352475166,-0.05602145469039678
1744926480231132200,9.346132080078124,0.022594693645834923,0.13142214811146258,-0.035247071806900204
1744926480241091300,9.35609130859375,0.13091471004597843,0.13238719375133515,0.17876666761040685
1744926480251050500,9.366050537109375,0.16764321604967117,0.0614472791314125,0.2876829328706488
1744926480261010400,9.376010498046876,0.08640928643047809,0.05318623126447201,-0.020254267999529837
1744926480270969300,9.38596923828125,0.12028050330691038,0.01634849273264408,-0.45301673946678633
1744926480280928300,9.39592822265625,0.20103578256368637,0.08926642942726612,-0.4653752127151936
1744926480290888200,9.40588818359375,0.2532008540868759,0.24676409903764723,0.09380732425991445
1744926480300847400,9.415847412109375,0.33440899167768656,0.23824060084223747,0.6751451405502855
1744926480310807600,9.4258076171875,0.3604635434538126,0.06164660109579563,0.6875835471671075
1744926480320766500,9.435766357421874,0.2613893481742591,-0.053498950475454325,0.36085035081431266
1744926480330725400,9.445725341796875,0.07427402747869491,0.01893091044127941,0.23730233361143618
1744926480340685300,9.455685302734375,-0.011644187499210238,0.21439619939625262,0.32162031031847
1744926480350644200,9.465644287109376,-0.169619996015355,-0.0005740004956722259,0.09804678846057503
1744926480360603400,9.475603271484376,-0.520655932040885,-0.2798603129535913,-0.5079600435316562
1744926480370563300,9.485563232421875,-0.5355226617831736,-0.3124135060340166,-0.7964980223290622
1744926480380522200,9.495522216796875,-0.2876261977147311,0.00682487758398056,-0.3538538064578548
1744926480390481400,9.5054814453125,-0.26101057798974214,0.131708563837409,0.15209354554452
1744926480400441300,9.51544140625,-0.2411456746339798,-0.15549100596308707,0.28021599452346563
1744926480410400500,9.525400390625,-0.09941146440990269,-0.25257658470869065,0.3232719134503975
1744926480420360400,9.5353603515625,0.08212583695761859,-0.0540010547786951,-0.011557276400737464
1744926480430319400,9.5453193359375,0.08316986611783504,0.4533446562469005,-0.7296759182915091
1744926480440278300,9.5552783203125,0.26212306927628815,0.37535248502790924,-1.259106327614188
1744926480450238500,9.565238525390624,0.2581512430358678,-0.011824293306469917,-0.8764986107610165
1744926480460197400,9.575197265625,-0.11980945172905921,-0.01187865384221077,-0.32139607310853896
1744926480470156500,9.585156494140625,0.16909926007688045,-0.04403787916898727,-0.15415533691253513
1744926480480116500,9.595116455078125,0.25726160071976484,0.19535715240538118,-0.048349093431606885
1744926480490075400,9.605075439453126,-0.03511917111091316,0.31607553567290303,0.4822578488571569
1744926480500034300,9.615034423828124,-0.052866570856049656,-0.1365150873363018,1.0168553951520471
1744926480509994200,9.624994140625,-0.2028290957212448,-0.3644885611861944,1.0410139040485025
1744926480519953200,9.634953125,-0.16477270211465656,-0.14619067817628384,0.7885914869882166
1744926480529912600,9.64491259765625,0.03363338953256607,0.13554653456509114,0.7715238862007856
1744926480539872500,9.65487255859375,-0.04994381527714431,0.1742377920091152,0.7471034384325146
1744926480549831400,9.66483154296875,-0.2282510486822575,-0.10792086101472377,0.2664980694901198
1744926480559791400,9.674791259765625,-0.10971651225984096,-0.26798282815515995,-0.345199996413663
1744926480569750300,9.684750244140625,0.08820018843524158,0.07383388249576091,-0.6211195358522236
1744926480579709200,9.694709228515626,0.14196750752329826,0.38263855038285255,-0.6654461688347161
1744926480589669400,9.70466943359375,0.059484016234427686,0.2115039850860834,-0.8673866451531648
1744926480599628500,9.714628662109375,-0.012839680894091725,-0.08970774345397949,-1.0536416957575827
1744926480609587500,9.72458740234375,0.049768531775474543,-0.05789981578290462,-0.835311883239448
1744926480619547400,9.73454736328125,0.1383493900913745,0.22272972797751425,-0.40669812894947827
1744926480629506300,9.74450634765625,0.13829912120886145,0.2543850954353809,-0.12018917176164685
1744926480639465200,9.75446533203125,-0.012464417840912937,-0.0017237550526857375,0.08084427271448075
1744926480649425200,9.764425048828125,-0.14686872356832026,-0.1624047308743,0.5010394504882395
1744926480659384300,9.77438427734375,-0.08229023373909294,-0.08669979380965233,0.9222104144915938
1744926480669344500,9.784344482421876,0.0032422698568552732,0.05251520013511181,0.9642109426140785
1744926480679303400,9.794303466796874,-0.05081657952368259,0.026819033342599868,0.8157575802028179
1744926480689262300,9.804262451171875,-0.09796002349257468,-0.10321662884652615,0.7523081674687564
1744926480699222300,9.81422216796875,-0.10047405214011669,-0.10832593468427658,0.5890287361191585
1744926480709181200,9.82418115234375,-0.03703172673396766,0.027521044132113454,0.1726465772949159
1744926480719140400,9.834140380859376,0.1084901853352785,0.1293956107199192,-0.331488939512521
1744926480729100500,9.8441005859375,0.09607201778888702,0.14390695115327834,-0.5795788072612136
1744926480739059500,9.8540595703125,0.011603344032168388,0.06380290234684943,-0.6719201871544123
1744926480749018400,9.864018310546875,0.02785531758777797,0.014061843100190163,-0.8542593064241111
1744926480758978300,9.873978271484376,0.08532974756546317,0.10743570784628391,-0.9616446723226457
1744926480768937500,9.8839375,0.08157762849032879,0.2019581581056118,-0.774232122246176
1744926480778896400,9.893896484375,0.029004560688138007,0.11738602397441864,-0.36273477632142603
1744926480788856300,9.903856201171875,-0.08444631579443812,-0.053554480054974554,-0.0747086925689131
1744926480798815200,9.913815185546875,-0.111361356857419,-0.09311784415841103,0.14322700606510042
1744926480808775400,9.923775390625,-0.011707388928532599,0.022176760494709014,0.5047492647916079
1744926480818734300,9.933734375,-0.0410906467359513,0.08617723124027252,0.8284964310709386
1744926480828693500,9.943693603515625,-0.10612279861681162,-0.05912672722935676,0.9220489403195679
1744926480838653400,9.9536533203125,-0.09824826584942638,-0.1637117218196392,0.7933877813540399
1744926480848612400,9.9636123046875,-0.02659574598073959,-0.07239537412524223,0.6760508572183549
1744926480858571300,9.9735712890625,0.06787183228619396,0.12696575322449208,0.5113870223056525
1744926480868531500,9.983531494140625,0.08762158482968807,0.14080372444093225,0.1471274841023609
1744926480878490400,9.993490478515625,0.05781096845567226,0.02696750190258026,-0.2743631403094157
1744926480888449500,10.003449462890625,0.07193952011652291,0.003093289840221405,-0.52917913797535
1744926480898409500,10.013409423828126,0.1239881987184286,0.1448585527896881,-0.6883228212270885
1744926480908368400,10.023368408203124,0.1214525427609682,0.22696166645884513,-0.8302885021194815
1744926480918327300,10.033327392578125,0.06035246963202953,0.12140285840034484,-0.871537919613719
1744926480928287200,10.043287353515625,-0.03030095717422664,0.00590074847638607,-0.6724328128516673
1744926480938246100,10.05324609375,-0.08480586982183158,-0.006333294674754142,-0.35073373820856213
1744926480948206000,10.0632060546875,-0.0802998636394739,0.039621816292405125,-0.05251881686430424
1744926480958165200,10.073165283203124,-0.08175364264436066,0.03617781331837177,0.21464692275431005
1744926480968124200,10.083124267578125,-0.13301321669518948,-0.05423252544701099,0.5213063953062519
1744926480978084400,10.09308447265625,-0.12983100646249948,-0.1107125375598669,0.7751685263134539
1744926480988043300,10.103043212890626,-0.09162607123069465,-0.08868892180025577,0.8415322190590202
1744926480998002200,10.113002197265626,0.016876973586156963,0.016285948890447616,0.7496119141221046
1744926481007962000,10.122962158203125,0.08220598952174187,0.0653513008326292,0.6175072636391967
1744926481017921300,10.13292138671875,0.06999298915863036,0.05527998867332935,0.41425325703676785
1744926481027880200,10.142880126953125,0.07636018610298632,0.02563596103787422,0.11052205648906528
1744926481037840100,10.152840087890626,0.13315642455816268,0.0814548788934946,-0.2809492041688412
1744926481047799300,10.16279931640625,0.19404490076303482,0.17166881830394268,-0.5481298490956426
1744926481057759200,10.17275927734375,0.1526443843603134,0.1854366468936205,-0.6723639853991568
1744926481067718100,10.18271826171875,0.04341002959422767,0.09802665898799896,-0.7684970126602798
1744926481077677300,10.19267724609375,-0.036138065829873084,0.00819733498096466,-0.7648141594290733
1744926481087637200,10.20263720703125,-0.04153970567770302,0.03271861277520657,-0.6073573698183521
1744926481097596200,10.21259619140625,-0.08485496966056526,0.07549217109680176,-0.3038329438891262
1744926481107555000,10.22255517578125,-0.15010587885864077,0.014297989943623543,-0.019324878194928168
1744926481117515300,10.232515380859375,-0.18378997566513716,-0.10309680185914039,0.22861451169978825
1744926481127474400,10.242474365234376,-0.18023089494407177,-0.12325929992198943,0.504560427688621
1744926481137433300,10.252433349609374,-0.10830956807136535,-0.04790273790359497,0.7196759908679873
1744926481147393300,10.262393310546875,-0.05132862069904804,0.007332827106118202,0.7886779962278903
1744926481157352200,10.272352294921875,-0.010896657067537308,-0.0022620997130870816,0.7105291731424629
1744926481167311000,10.28231103515625,0.03361176222264767,-0.011450199297070503,0.5427957945913076
1744926481177271000,10.29227099609375,0.1225765783548355,0.04376783005595207,0.349843365240097
1744926481187230500,10.30223046875,0.20559972947835922,0.14188392089307308,0.03374934406243264
1744926481197190400,10.3121904296875,0.2263257066428661,0.18686697195768356,-0.2890290137173608
1744926481207149300,10.3221494140625,0.17870646185576913,0.13537059347629546,-0.5132145665263756
1744926481217108200,10.332108154296876,0.11682839009165763,0.0885696793347597,-0.641959348654747
1744926481227068200,10.342068115234374,0.06284136383831501,0.08716448871195316,-0.7218792000006884
1744926481237027000,10.352027099609375,0.02162321826517582,0.0927051717042923,-0.6988778983153402
1744926481246986200,10.361986328125,-0.05405541531443596,0.05043897838294506,-0.5318678656026721
1744926481256946400,10.371946533203126,-0.1663426548451185,-0.03412088078856468,-0.26463366385772824
1744926481266905300,10.3819052734375,-0.20976269437670705,-0.09183657217621803,0.009514591591991483
1744926481276864300,10.3918642578125,-0.20791268259584902,-0.08894844951927662,0.2595256731942296
1744926481286824200,10.40182421875,-0.18583821343183515,-0.05645955384671688,0.48706864667236804
1744926481296783000,10.411783203125,-0.15210779326558113,-0.0431651879876852,0.6686478144202381
1744926481306742300,10.4217421875,-0.10552139865756034,-0.054745735666155815,0.7231854602936655
1744926481316702200,10.4317021484375,-0.029747488009929657,-0.03704699736833572,0.6467179413586854
1744926481326661400,10.441661376953125,0.1021200657814741,0.04144786267578601,0.476637890083529
1744926481336621300,10.451621337890625,0.18428338520526885,0.12210954536497592,0.2744325157511979
1744926481346580200,10.461580322265625,0.2243576214402914,0.12926409329473973,0.010226393123157321
1744926481356539100,10.4715390625,0.23312479219846427,0.11502689362764358,-0.27350915382858365
1744926481366499000,10.4814990234375,0.2268049415271729,0.13551087872982023,-0.48654772807080293
1744926481376458200,10.491458251953125,0.19755437018871305,0.16947276956439017,-0.6109395391540602
1744926481386417200,10.501417236328125,0.10837854165434836,0.136149176633358,-0.6734393595457077
1744926481396377300,10.51137744140625,-0.0029273586887866255,0.06880874781012535,-0.6251818168550729
1744926481406336300,10.521336181640624,-0.09910166780836879,-0.013866612789034843,-0.47626554963979867
1744926481416295200,10.531295166015624,-0.16736973287053405,-0.04622574460208416,-0.21980456124581396
1744926481426255000,10.541255126953125,-0.21175532949864864,-0.039356443354487416,0.04687803449835628
1744926481436214300,10.55121435546875,-0.24854053412564098,-0.08168401147425174,0.2581563576024026
1744926481446174200,10.56117431640625,-0.23970417058877647,-0.10724047753512858,0.4660885486163199
1744926481456133000,10.571133056640624,-0.20058686975240705,-0.10559855554699897,0.6078549075443297
1744926481466092300,10.58109228515625,-0.1227864947784692,-0.027840777605772016,0.6511120115991681
1744926481476052200,10.59105224609375,0.015240823751688002,0.01946516344845295,0.5658711844261736
1744926481486011400,10.601011474609376,0.10532499930262565,0.060272974655032154,0.4194890022657811
1744926481495970300,10.61097021484375,0.17442418142668903,0.08202420321404934,0.24156419230699538
1744926481505930200,10.62093017578125,0.23337730565480885,0.12438216647207737,-0.011954751285724341
1744926481515889200,10.63088916015625,0.2839280007839203,0.17105156318843365,-0.2552017090478912
1744926481525848000,10.64084814453125,0.27227204978168007,0.17595862445235252,-0.47396742876525966
1744926481535808300,10.650808349609376,0.21537878069281577,0.1575543682336807,-0.5935271800495684
1744926481545767400,10.660767333984374,0.10440203923881053,0.10328910956084728,-0.5919829828148707
1744926481555726300,10.670726318359375,0.012032894555851817,0.06583353139162063,-0.5238340140877291
1744926481565686300,10.680686279296875,-0.0747714556068182,0.03681961835324764,-0.38402784931678324
1744926481575645200,10.690645263671875,-0.17025602889657018,-0.013541618618369103,-0.18076536714695393
1744926481585605000,10.700605224609374,-0.2545751381147653,-0.06893500453829765,0.0458108801908791
1744926481595564000,10.71056396484375,-0.28586802893579005,-0.13310498663187026,0.2679115530172363
1744926481605523500,10.7205234375,-0.27362930960953236,-0.11886252626776694,0.4501289090707898
1744926481615483400,10.7304833984375,-0.20392098261117933,-0.06590133593082427,0.555441633413732
1744926481625442300,10.7404423828125,-0.12400873004980384,-0.04678688561618328,0.6054280822562054
1744926481635401200,10.750401123046874,-0.03922960210442543,-0.029964930152893064,0.5237602912643924
1744926481645361200,10.760361083984375,0.06396656847596169,0.03603811258673668,0.35065234353542324
1744926481655320000,10.770320068359375,0.19757709347717461,0.10255962624251842,0.16340977973099796
1744926481665279200,10.780279296875,0.2816664855927229,0.17559972801208495,-0.0494887284534052
1744926481675239400,10.790239501953126,0.29201887971572577,0.19922318018376825,-0.2664249677212909
1744926481685198300,10.8001982421875,0.2790641941398382,0.16043781471550464,-0.43994756066575647
1744926481695158300,10.810158203125,0.2285248241223395,0.16177052462399005,-0.5274298100899905
1744926481705117200,10.8201171875,0.1323329062808305,0.11840659919381141,-0.5197710024325177
1744926481715076000,10.830076171875,0.03181501499898731,0.0831675280302763,-0.4539444122383371
1744926481725036000,10.8400361328125,-0.08633161808438598,0.016571780094504357,-0.3271817073052749
1744926481734995200,10.8499951171875,-0.18512575431354342,-0.049970776349306106,-0.10477295491043477
1744926481744954400,10.859954345703125,-0.2513070762295276,-0.09490005140006541,0.09612221360616385
1744926481754914300,10.869914306640625,-0.30099669754989444,-0.11046236219108103,0.27207532163318243
1744926481764873200,10.879873291015626,-0.3057880234796554,-0.09474515309929847,0.4117717058867216
1744926481774832000,10.88983203125,-0.23251119034476578,-0.10388707545399666,0.5207902259450405
1744926481784792000,10.8997919921875,-0.16191080987751483,-0.061435004171729084,0.5121427725763991
1744926481794751200,10.909751220703125,-0.045351884377002716,-0.0012380173623561857,0.44481111158151176
1744926481804710100,10.919710205078125,0.09963350966274738,0.04959785138368606,0.3050922232352197
1744926481814670300,10.92967041015625,0.19199615153968333,0.1285071374475956,0.12925981897842137
1744926481824629200,10.939629150390624,0.27310148634314535,0.15934358973801135,-0.0925445377824828
1744926481834589200,10.949589111328125,0.33159576088786125,0.15588906536996364,-0.25398235985338685
1744926481844548400,10.95954833984375,0.3013374007463455,0.16454992620944975,-0.38713735963944346
1744926481854507300,10.96950732421875,0.25635785681307316,0.15871230609714984,-0.4615317255621776
1744926481864467200,10.97946728515625,0.1453161603640765,0.11596329769492149,-0.4681529703328386
1744926481874426000,10.989426025390625,0.032010172244906425,0.05801730468273163,-0.39318613828439264
1744926481884385300,10.99938525390625,-0.07270465927012264,0.005666939720511436,-0.26124690749626606
1744926481894345200,11.00934521484375,-0.17953122224211693,-0.05874795704483986,-0.09051317808534949
1744926481904304400,11.019304443359376,-0.2814683326721191,-0.09423778809905052,0.09480740468055009
1744926481914263000,11.029262939453124,-0.3141132956892252,-0.10767419277727604,0.26688871277552095
1744926481924223000,11.039222900390625,-0.31487266268916425,-0.13189093466699123,0.39177481018174437
1744926481934182000,11.049181884765625,-0.26194537462182343,-0.11931494621038437,0.45272228656485675
1744926481944140800,11.059140869140625,-0.15691658178679643,-0.0536702153891325,0.4519713951323181
1744926481954101000,11.06910107421875,-0.03651164838261902,0.00039630584120750427,0.36351226349994537
1744926481964060200,11.07906005859375,0.07764021597616375,0.054414896276593204,0.22999252205472437
1744926481974020000,11.08902001953125,0.195639549543336,0.09848784675896168,0.07109740673657507
1744926481983979000,11.09897900390625,0.3024807986278087,0.17633271846175191,-0.10221000908724963
1744926481993938000,11.10893798828125,0.3420669590849429,0.19428397021591662,-0.2589121078731492
1744926482003897900,11.11889794921875,0.3151684307653457,0.19202596215605736,-0.3552610429072752
1744926482013856800,11.128856689453125,0.26256321425922213,0.16373860982656477,-0.4072698644228279
1744926482023816000,11.13881591796875,0.17640921776406465,0.11618892314434051,-0.3892769654840231
1744926482033776000,11.148776123046876,0.057197804993391034,0.07570902871787548,-0.31239969670437273
1744926482043735000,11.158735107421874,-0.0684317311912775,0.009987725529074669,-0.17600640911683438
1744926482053694000,11.16869384765625,-0.1913917559057474,-0.030375264519453046,-0.02430975393541157
1744926482063654000,11.17865380859375,-0.2872539303362369,-0.08773089042305945,0.13876217214334755
1744926482073613000,11.188613037109375,-0.31590478221587837,-0.13726269083321094,0.270861123537831
1744926482083573000,11.198572998046876,-0.3186988699138164,-0.1215530805259943,0.34958515269532797
1744926482093532200,11.2085322265625,-0.2652010154169053,-0.09193594089746475,0.39122166981101036
1744926482103491000,11.218490966796875,-0.1562567296385765,-0.05634440303444862,0.39095114577393975
1744926482113451000,11.228450927734375,-0.04741173951625824,-0.002683539995551109,0.30612131055463104
1744926482123410000,11.238409912109375,0.06755852855332195,0.0643839171051979,0.16117281445916742
1744926482133369000,11.248369140625,0.20310082533471285,0.1105862808316946,0.030876638170331715
1744926482143329000,11.2583291015625,0.26931144641041754,0.15568331366479396,-0.11676906111985444
1744926482153288000,11.268287841796875,0.3118738461993634,0.19012451244890688,-0.2647090306488797
1744926482163246800,11.278246826171875,0.31793789547868073,0.19072364738583564,-0.3401316071081906
1744926482173207000,11.28820703125,0.26224406530745326,0.16438859816789625,-0.37391883549559857
1744926482183166000,11.298166015625,0.17674254137165843,0.13029460538625717,-0.31576318178810175
1744926482193125000,11.308125,0.05829210303612053,0.07200900515615939,-0.2354447595786303
1744926482203085000,11.3180849609375,-0.06332819750718773,0.006575871258974075,-0.12899579774737358
1744926482213044000,11.3280439453125,-0.17620587721168993,-0.055797875067591665,0.027607041915133593
1744926482223004200,11.338004150390624,-0.28086276799440385,-0.10375205089747905,0.1537279052807018
1744926482232963000,11.347963134765624,-0.32407406014613804,-0.12220306886732578,0.2780581589024514
1744926482242922000,11.357921875,-0.3116822691500187,-0.11681494608819484,0.3400664694501087
1744926482252882000,11.3678818359375,-0.26640629955343903,-0.09107786276340483,0.3506628283968195
1744926482262841000,11.377841064453126,-0.19497071037106214,-0.054579146927595135,0.33596692517679183
1744926482272800000,11.387800048828124,-0.05969071778766811,-0.0083873045951128,0.2341546101702377
1744926482282760000,11.397760009765625,0.06326046603322029,0.05855798743069172,0.12204521142449229
1744926482292718800,11.40771875,0.17245967642068863,0.09671499186754226,-0.0320701222712174
1744926482302677800,11.417677734375,0.27647943834364413,0.14859189409911633,-0.1548876332424581
1744926482312638000,11.427637939453126,0.30377602607011794,0.18081892396509647,-0.24482925851754841
1744926482322597000,11.43759716796875,0.3220576057571918,0.1857803457647562,-0.30944409830179065
1744926482332557000,11.44755712890625,0.28072197128422555,0.17337912935316563,-0.32186971850227564
1744926482342516000,11.457515869140625,0.1753028639573604,0.1356774674683809,-0.28493374376036223
1744926482352475000,11.467474853515625,0.08122574631273746,0.07361468678712844,-0.17557557995151726
1744926482362435000,11.47743505859375,-0.05203647670745849,0.009048983374238014,-0.051886437244899566
1744926482372394000,11.48739404296875,-0.1634591352980584,-0.054115036547183984,0.07487666954696177
1744926482382353200,11.497353271484375,-0.2551110716223717,-0.10122048659324645,0.18072160107046364
1744926482392313000,11.50731298828125,-0.31966384248845275,-0.11983926234543323,0.2615929444549605
1744926482402272000,11.51727197265625,-0.312882219524309,-0.13213409577310084,0.30621750093810257
1744926482412231000,11.52723095703125,-0.26786409714631737,-0.10924714118242262,0.3155918803418055
1744926482422190800,11.53719091796875,-0.1985544140767306,-0.04328209236562252,0.2663197903137654
1744926482432149800,11.547149658203125,-0.08232055581212043,0.00006955810487270355,0.17278744707033036
1744926482442109000,11.55710888671875,0.05628828893303871,0.049966100174188614,0.04949866532552987
1744926482452069000,11.567069091796874,0.15725333946049214,0.12316402285397052,-0.06261478854082525
1744926482462028000,11.577028076171874,0.25303594584874806,0.16307283939421177,-0.18471932893712073
1744926482471988000,11.586988037109375,0.2951602464813739,0.16851941436231135,-0.24381763378959148
1744926482481947000,11.59694677734375,0.2766980495303869,0.16495909153223037,-0.28440522637423127
1744926482491906000,11.606906005859376,0.2609088711809367,0.1512064605116844,-0.2779666081614792
1744926482501866000,11.616865966796874,0.17674064167551695,0.12159516610205173,-0.2300197388552129
1744926482511825200,11.6268251953125,0.06860358062684535,0.07060556809902191,-0.14002320505511015
1744926482521784000,11.6367841796875,-0.033666780345514416,-0.007887538379430771,-0.01566624608952552
1744926482531744000,11.646743896484375,-0.13739011660516262,-0.058953124228119845,0.09568890022281556
1744926482541703000,11.656702880859376,-0.23065175314843653,-0.06864449715912342,0.20502810360286383
1744926482551662000,11.666662109375,-0.2632709972023964,-0.10928279701769351,0.27266072030570354
1744926482561622000,11.6766220703125,-0.2749987713318318,-0.10949614750742911,0.28737437837813046
1744926482571581000,11.686580810546875,-0.24605266283266244,-0.08065525294840335,0.27060002491623164
1744926482581541000,11.696541015625,-0.14617949919514356,-0.037459085300564764,0.21573997868802397
1744926482591500000,11.7065,-0.07723214663192629,-0.005194646033644676,0.1361796083042398
1744926482601459000,11.716458984375,0.014945713262632488,0.03183598472177982,0.008778094010986387
1744926482611419000,11.7264189453125,0.11143559113740921,0.07542319751381873,-0.10670417870134115
1744926482621378000,11.7363779296875,0.17791216967292128,0.11778174529373645,-0.1869030296517536
1744926482631337000,11.7463369140625,0.24268187122531235,0.1360094759017229,-0.24657975544668734
1744926482641297200,11.756297119140624,0.25901626236736774,0.15418869119286535,-0.26270722583979367
1744926482651256000,11.766256103515625,0.2268021650481969,0.15527473286390303,-0.2136866628874093
1744926482661215000,11.776215087890625,0.19104630346894264,0.11596212865114211,-0.15457414684649556
1744926482671175000,11.7861748046875,0.1131604421686381,0.061519759845733636,-0.06661353932078927
1744926482681134000,11.796134033203124,0.03463752507381141,0.046133390143513676,0.05072532104365527
1744926482691093000,11.806093017578124,-0.0711807376384735,-0.0042453824847936625,0.16067772441860287
1744926482701053000,11.816052978515625,-0.14536701376847921,-0.039324879172444344,0.22671525394972414
1744926482711011800,11.82601171875,-0.18276596637964249,-0.07870704149007797,0.24815811067931354
1744926482720972000,11.835971923828126,-0.24480069001019,-0.09155249453783035,0.26914325023666025
1744926482730931000,11.845930908203124,-0.23831081653423605,-0.09853051685690879,0.22295254041533916
1744926482740890000,11.85589013671875,-0.19310740071721375,-0.05909282495975494,0.14407668169699608
1744926482750850000,11.86585009765625,-0.153438238151744,-0.0289133752733469,0.042998306988179684
1744926482760809000,11.87580908203125,-0.0626543168336153,0.008600655084848403,-0.0494833216259256
1744926482770768000,11.885767822265626,0.032328152152895924,0.042971711242198944,-0.14972367460802197
1744926482780728000,11.89572802734375,0.1365454094093293,0.09317921895682811,-0.21578966304864733
1744926482790687000,11.90568701171875,0.2244569901615381,0.12762041774094104,-0.2511875780357048
1744926482800646100,11.915646240234375,0.23346096535027025,0.15588906536996364,-0.2524230746474117
1744926482810606000,11.925606201171876,0.2336287231326103,0.129644032523036,-0.18825236190147696
1744926482820565000,11.93556494140625,0.19359423438608644,0.11100129137337207,-0.11423563365209848
1744926482830525000,11.94552490234375,0.1347680244732648,0.06749181999266148,-0.008324541557207703
1744926482840483800,11.95548388671875,0.06658003890998661,0.03938566944897175,0.0967045435387641
1744926482850443000,11.965443115234375,-0.013066329256817697,0.04284896164536476,0.17543153183832763
1744926482860403000,11.97540283203125,-0.09954941157586872,-0.013356909701228142,0.2444949850618839
1744926482870362000,11.985362060546874,-0.15997545790076254,-0.06128945822119713,0.24695454357583074
1744926482880321000,11.995321044921875,-0.17260748739354312,-0.0737210697710514,0.22717454202454535
1744926482890281000,12.005281005859375,-0.2039198866326362,-0.056362523213028905,0.19236374274305998
1744926482900240000,12.015239990234376,-0.19268946756608782,-0.03447627009749412,0.12892433994635938
1744926482910199000,12.025198974609374,-0.1537690044760704,-0.034683190846443175,0.009059029844217002
1744926482920159000,12.035158935546875,-0.07758534398376941,-0.017817980763316154,-0.06707797849476337
1744926482930118100,12.0451181640625,0.006765329416468739,0.04601239411234855,-0.15099807845801114
1744926482940077000,12.0550771484375,0.0884394040185958,0.10802724399864673,-0.21401896358169614
1744926482950037000,12.065037109375,0.14929332036674023,0.13964461753368376,-0.24671178432852028
1744926482959996200,12.07499609375,0.15598317339420317,0.09044891721010208,-0.2368921453753486
1744926482969956000,12.0849560546875,0.1562404360909015,0.07324585347473621,-0.1580991061022505
1744926482979915300,12.094915283203125,0.15080496703870594,0.08755378029048443,-0.06861479614060371
1744926482989874200,12.104874267578126,0.10460311476886272,0.08268588199317455,-0.0032792408663779495
1744926482999834000,12.114834228515624,0.03145663001537323,0.04101531647741794,0.09440660532731562
1744926483009793000,12.12479296875,0.0004927519530057906,-0.010672200661897658,0.1562756535347551
1744926483019752000,12.134751953125,-0.061097808106616136,-0.021966332614421845,0.2546701959870756
1744926483029712100,12.144712158203125,-0.1209375059109181,-0.01319441261589527,0.2539102444652468
1744926483039671300,12.15467138671875,-0.11795410618595778,-0.026551322317123413,0.21386870492342858
