time,seconds_elapsed,z,y,x
1744926470909166600,0.02416650390625,0.07395261526107788,0.062436237931251526,-0.04732545465230942
1744926470919126500,0.03412646484375,0.05225825309753418,0.06506959348917007,-0.055181607604026794
1744926470929085400,0.04408544921875,0.030093828216195107,0.04975774884223938,-0.04330603778362274
1744926470939044400,0.05404443359375,0.003226896282285452,0.030365964397788048,-0.00948038324713707
1744926470949004300,0.06400439453125,-0.015470092184841633,0.002377738244831562,0.013350097462534904
1744926470958963700,0.073963623046875,-0.016828017309308052,-0.032045431435108185,0.008417466655373573
1744926470968922600,0.083922607421875,-0.04125959053635597,-0.022602127864956856,0.0033571948297321796
1744926470978882600,0.093882568359375,-0.06940384209156036,0.00813951063901186,0.016996342688798904
1744926470988841500,0.103841552734375,-0.02575170062482357,-0.014101878739893436,0.023304305970668793
1744926470998801400,0.113801513671875,0.036905188113451004,-0.04692243039608002,0.014583468437194824
1744926471008760600,0.123760498046875,0.022717993706464767,-0.013704822398722172,0.0006090640090405941
1744926471018719500,0.133719482421875,-0.020076245069503784,0.053944457322359085,-0.02585190162062645
1744926471028679700,0.1436796875,0.06466420739889145,-0.04332563653588295,-0.033395037055015564
1744926471038638600,0.153638671875,0.027153363451361656,-0.06052939221262932,0.00865328311920166
1744926471048597500,0.163597412109375,-0.06836516410112381,0.03719157353043556,0.006328343879431486
1744926471058557400,0.173557373046875,-0.06103089079260826,0.013431066647171974,-0.02262102998793125
1744926471068516600,0.1835166015625,0.01677735522389412,-0.08135589957237244,-0.01901298016309738
1744926471078476500,0.1934765625,0.006945032626390457,-0.05802921578288078,-0.0027058974374085665
1744926471088435500,0.203435546875,-0.06534061580896378,0.01707299053668976,0.02724534459412098
1744926471098394600,0.21339453125,-0.04370254650712013,0.012211075983941555,0.03259008750319481
1744926471108354600,0.2233544921875,0.040824055671691895,-0.054620418697595596,0.005260462872684002
1744926471118313500,0.2333134765625,0.03511841967701912,-0.02006411738693714,0.0086656603962183
1744926471128272600,0.243272705078125,-0.026967588812112808,0.06280120462179184,0.030520092695951462
1744926471138232600,0.253232666015625,-0.0018869617488235235,0.0477108433842659,0.02454005926847458
1744926471148191500,0.26319140625,0.06794298440217972,-0.012089375406503677,0.0014600387075915933
1744926471158151700,0.273151611328125,0.049853503704071045,0.006290602497756481,-0.01651167683303356
1744926471168110600,0.283110595703125,-0.02165316976606846,0.06876517087221146,-0.01799798756837845
1744926471178069500,0.293069580078125,-0.01657080464065075,0.04046878591179848,-0.013732841238379478
1744926471188029400,0.303029541015625,0.04204776883125305,-0.03827769309282303,-0.019189657643437386
1744926471197988600,0.312988525390625,0.017279036343097687,-0.030231483280658722,-0.023937273770570755
1744926471207947500,0.322947509765625,-0.05353680998086929,0.02717401832342148,-0.027925090864300728
1744926471217907500,0.332907470703125,-0.045922935009002686,0.009338542819023132,-0.020521286875009537
1744926471227866400,0.342866455078125,0.010245260782539845,-0.06488215923309326,-0.0025582651142030954
1744926471237826600,0.35282666015625,0.00012403074651956558,-0.05147070065140724,0.010127655230462551
1744926471247785500,0.362785400390625,-0.050623569637537,0.015565860085189342,0.00931299477815628
1744926471257744600,0.37274462890625,-0.036202456802129745,0.012444829568266869,0.01303656306117773
1744926471267704600,0.38270458984375,0.028728339821100235,-0.03907535597681999,0.01902894303202629
1744926471277663500,0.39266357421875,0.032930321991443634,-0.019938144832849503,0.03486643359065056
1744926471287622400,0.402622314453125,-0.009539906866848469,0.04584406316280365,0.03196784853935242
1744926471297582600,0.41258251953125,-0.001016878872178495,0.04282781481742859,0.006456583272665739
1744926471307541500,0.42254150390625,0.050913166254758835,-0.004982584621757269,-0.008262974210083485
1744926471317501400,0.43250146484375,0.04050008952617645,0.0004475535824894905,-0.0028497865423560143
1744926471327460600,0.442460693359375,-0.0068594347685575485,0.04681398719549179,-0.005659953691065311
1744926471337419500,0.45241943359375,-0.009523225948214531,0.030480891466140747,-0.02111075259745121
1744926471347379500,0.46237939453125,0.021464519202709198,-0.018878135830163956,-0.036779459565877914
1744926471357338400,0.47233837890625,0.009825479239225388,-0.01619056984782219,-0.033479709178209305
1744926471367297500,0.482297607421875,-0.037736713886260986,0.010740913450717926,-0.01242848765105009
1744926471377257500,0.492257568359375,-0.03227846324443817,-0.008182690478861332,-0.0035276226699352264
1744926471387216600,0.502216552734375,0.0035045668482780457,-0.0470145083963871,-0.006583866197615862
1744926471397176600,0.512176513671875,-0.0028316983953118324,-0.03639449551701546,-0.000621973886154592
1744926471407135500,0.522135498046875,-0.03442024812102318,0.005940977018326521,0.01606379635632038
1744926471417094400,0.532094482421875,-0.02282760664820671,0.004851015750318766,0.027076829224824905
1744926471427054600,0.5420546875,0.02134384959936142,-0.029089374467730522,0.03175094351172447
1744926471437013500,0.552013427734375,0.022065090015530586,-0.013244607485830784,0.02279777266085148
1744926471446973400,0.561973388671875,-0.0058054244145751,0.03262568265199661,0.013875648379325867
1744926471456932600,0.5719326171875,0.001603082288056612,0.032871294766664505,0.00942190270870924
1744926471466891500,0.5818916015625,0.03737999126315117,-0.0004839967004954815,0.0024470845237374306
1744926471476851500,0.5918515625,0.03107779659330845,0.0005938825197517872,-0.004904869478195906
1744926471486810400,0.601810302734375,-0.006686357315629721,0.04002784192562103,-0.01932854950428009
1744926471496769500,0.61176953125,-0.008650162257254124,0.03162985295057297,-0.026644080877304077
1744926471506729700,0.621729736328125,0.016412580385804176,-0.013914726674556732,-0.02840150147676468
1744926471516688600,0.631688720703125,0.011166969314217567,-0.016411321237683296,-0.01994861103594303
1744926471526648600,0.641648681640625,-0.024764131754636765,0.007837026380002499,-0.01746787689626217
1744926471536607500,0.651607421875,-0.03090756945312023,-0.001977544743567705,-0.014442370273172855
1744926471546566400,0.66156640625,-0.0038162972778081894,-0.03141346201300621,-0.007524542976170778
1744926471556526300,0.6715263671875,0.0007179541862569749,-0.0314270444214344,0.006354050245136023
1744926471566485800,0.68148583984375,-0.023809758946299553,-0.004179178737103939,0.021076537668704987
1744926471576444700,0.691444580078125,-0.01816793903708458,0.0037353001534938812,0.021836571395397186
1744926471586404600,0.701404541015625,0.015982307493686676,-0.014829062856733799,0.019548118114471436
1744926471596363500,0.711363525390625,0.018097182735800743,-0.011307807639241219,0.023311007767915726
1744926471606323500,0.721323486328125,-0.0004376200377009809,0.02050738036632538,0.025900132954120636
1744926471616282400,0.731282470703125,0.0038789173122495413,0.022959789261221886,0.017614005133509636
1744926471626241500,0.741241455078125,0.02845590002834797,0.002703518606722355,0.00683512631803751
1744926471636201700,0.75120166015625,0.023470517247915268,0.003411677200347185,-0.0055591147392988205
1744926471646160600,0.76116064453125,-0.0019924971275031567,0.024387000128626823,-0.006983373314142227
1744926471656119600,0.77111962890625,-0.0012524437624961138,0.015547530725598335,-0.01054065115749836
1744926471666079500,0.78107958984375,0.010039092972874641,-0.00996661651879549,-0.01891336217522621
1744926471676038400,0.791038330078125,-0.0010812204563990235,-0.0130006093531847,-0.023122237995266914
1744926471685998300,0.800998291015625,-0.0257016122341156,0.00907939299941063,-0.024852760136127472
1744926471695957500,0.81095751953125,-0.022651799023151398,-0.0006636865437030792,-0.01912838965654373
1744926471705916700,0.820916748046875,-0.004697033204138279,-0.027069726958870888,-0.0065050069242715836
1744926471715876600,0.830876708984375,-0.0037767975591123104,-0.02244802936911583,0.00009985256474465132
1744926471725835500,0.84083544921875,-0.019960027188062668,0.0028011337853968143,0.0006063858745619655
1744926471735794400,0.85079443359375,-0.012903790920972824,0.0003258483484387398,0.007728083990514278
1744926471745754400,0.86075439453125,0.010795678943395615,-0.014273600652813911,0.018080858513712883
1744926471755713500,0.870713623046875,0.014355402439832687,-0.004917189944535494,0.02172500267624855
1744926471765673700,0.880673828125,0.0007485135574825108,0.014152641408145428,0.022533804178237915
1744926471775632600,0.890632568359375,0.0035301740281283855,0.016914580017328262,0.01593218930065632
1744926471785591600,0.900591552734375,0.021312100812792778,0.0019042044878005981,0.00784549955278635
1744926471795551500,0.910551513671875,0.01757146418094635,0.0034687165170907974,0.0045810905285179615
1744926471805510400,0.920510498046875,0.0008476116345264018,0.014124023728072643,0.0015251132426783442
1744926471815470300,0.93047021484375,-0.004231217782944441,0.010629592463374138,-0.009144810028374195
1744926471825429500,0.940429443359375,0.00445281807333231,-0.004292364232242107,-0.016944142058491707
1744926471835388400,0.950388427734375,-0.002469100523740053,-0.008059600368142128,-0.017213325947523117
1744926471845348600,0.9603486328125,-0.012733988463878632,-0.0009921041782945395,-0.012929631397128105
1744926471855307500,0.9703076171875,-0.015608394518494606,-0.0003934493288397789,-0.009337936528027058
1744926471865266700,0.9802666015625,-0.0038540009409189224,-0.014196613803505898,-0.011402685195207596
1744926471875226600,0.9902265625,-0.002668027300387621,-0.014622136019170284,-0.004617734346538782
1744926471885185500,1.000185546875,-0.010928354226052761,0.0005629421211779118,0.0013573340838775039
1744926471895144400,1.01014453125,-0.006141560152173042,0.0026576635427773,0.01251936238259077
1744926471905104400,1.0201044921875,0.008120999671518803,-0.010648820549249649,0.015094905160367489
1744926471915063300,1.030063232421875,0.010657603852450848,-0.0029315371066331863,0.014751513488590717
1744926471925023200,1.040023193359375,0.0028572045266628265,0.011958994902670383,0.013591974042356014
1744926471934982400,1.049982421875,0.004398351535201073,0.013376543298363686,0.013382306322455406
1744926471944941300,1.05994140625,0.015887495130300522,-0.0017635279800742865,0.011014224030077457
1744926471954901500,1.069901611328125,0.011227310635149479,0.006239881739020348,-0.000005217385478317738
1744926471964860400,1.0798603515625,0.00035309098893776536,0.01218059379607439,-0.0057374052703380585
1744926471974819300,1.0898193359375,-0.004208201076835394,0.010386761277914047,-0.011615471914410591
1744926471984779300,1.099779296875,-0.000045147957280278206,-0.0058153788559138775,-0.01593085750937462
1744926471994738400,1.109738525390625,-0.0005416640196926892,-0.00932917557656765,-0.015107190236449242
1744926472004698400,1.119698486328125,-0.011874745599925518,-0.004841749090701342,-0.020126182585954666
1744926472014657300,1.1296572265625,-0.01312146708369255,-0.005441421177238226,-0.01469486951828003
1744926472024616400,1.139616455078125,-0.004734640475362539,-0.006932791322469711,-0.012541703879833221
1744926472034576400,1.149576416015625,-0.0038855005986988544,-0.007671212777495384,-0.0034010775852948427
1744926472044535300,1.159535400390625,-0.004990978632122278,-0.000508907251060009,0.005127429962158203
1744926472054494500,1.169494384765625,0.00009526859503239393,-0.0014437499921768904,0.009716995991766453
1744926472064454400,1.179454345703125,0.005595494993031025,-0.0007723672315478325,0.01463265810161829
1744926472074413300,1.189413330078125,0.01106063462793827,0.001657017506659031,0.019185349345207214
1744926472084373500,1.19937353515625,0.005383041687309742,0.0031180274672806263,0.016780514270067215
1744926472094332400,1.20933251953125,0.007284262217581272,0.006003804039210081,0.017241336405277252
1744926472104291300,1.219291259765625,0.00724378228187561,0.0015672435984015465,0.01027290802448988
1744926472114251300,1.229251220703125,0.0046779396943748,0.002300725784152746,0.004315902944654226
1744926472124210400,1.23921044921875,-0.0018071236554533243,0.00557135371491313,-0.004621399566531181
1744926472134169300,1.24916943359375,-0.0062208655290305614,0.0026864493265748024,-0.01230172161012888
1744926472144129300,1.25912939453125,-0.000997341237962246,-0.004629520699381828,-0.017524445429444313
1744926472154088200,1.269088134765625,-0.004127230495214462,-0.0043498151935637,-0.018712090328335762
1744926472164048400,1.27904833984375,-0.009327318519353867,-0.0014722694177180529,-0.020706532523036003
1744926472174007300,1.28900732421875,-0.009710310027003288,-0.0037017473950982094,-0.018970072269439697
1744926472183966500,1.298966552734375,-0.0027884875889867544,-0.006196330301463604,-0.009491883218288422
1744926472193926400,1.308926513671875,0.0007272535585798323,-0.0020585553720593452,-0.004588422831147909
1744926472203885300,1.31888525390625,0.0006508208462037146,-0.0003474741242825985,0.003146728267893195
1744926472213844200,1.32884423828125,-0.00028166495030745864,0.0021079126745462418,0.011270481161773205
1744926472223804400,1.338804443359375,0.005205245688557625,0.002881028223782778,0.01353336963802576
1744926472233763600,1.348763671875,0.008179332129657269,0.0018875021487474442,0.017800848931074142
1744926472243723500,1.3587236328125,0.00467008538544178,0.0018270481377840042,0.019617924466729164
1744926472253682400,1.368682373046875,0.0054816072806715965,0.0017463788390159607,0.014304760843515396
1744926472263641300,1.378641357421875,0.005119150970131159,0.002134134992957115,0.00837256945669651
1744926472273601300,1.388601318359375,0.0021291247103363276,-0.001951614860445261,0.004723836202174425
1744926472283560200,1.398560302734375,-0.0020384560339152813,-0.002067462308332324,-0.0020722849294543266
1744926472293519400,1.408519287109375,-0.0032971056643873453,-0.000686252024024725,-0.00918142031878233
1744926472303479600,1.4184794921875,-0.0054683806374669075,-0.0026490017771720886,-0.013066706247627735
1744926472313438500,1.4284384765625,-0.005760166794061661,-0.0037199300713837147,-0.018623987212777138
1744926472323398400,1.4383984375,-0.006484546698629856,0.0003283410333096981,-0.018308136612176895
1744926472333357300,1.448357421875,-0.006734226830303669,0.0011228350922465324,-0.01676284521818161
1744926472343316200,1.458316162109375,-0.0028265707660466433,0.0010906108655035496,-0.012502853758633137
1744926472353276200,1.468276123046875,-0.0002336997422389686,0.002823383081704378,-0.009789874777197838
1744926472363235600,1.478235595703125,0.0038627744652330875,0.0027147261425852776,-0.0005284653161652386
1744926472373194500,1.488194580078125,0.0027083621826022863,0.0035073328763246536,0.003402908332645893
1744926472383154400,1.498154541015625,0.00669484818354249,0.0032109227031469345,0.010535385459661484
1744926472393113300,1.50811328125,0.008887780830264091,0.00031943153589963913,0.01889534667134285
1744926472403073300,1.5180732421875,0.008252616971731186,0.0047783623449504375,0.019176309928297997
1744926472413032200,1.5280322265625,0.006535068154335022,0.0006668306887149811,0.018839560449123383
1744926472422991400,1.537991455078125,0.0011584124295040965,0.004519092850387096,0.017455250024795532
1744926472432951600,1.54795166015625,0.00046523846685886383,-0.005080272909253836,0.008342116139829159
1744926472442910500,1.557910400390625,-0.00021759606897830963,-0.0072366343811154366,0.002059186575934291
1744926472452869400,1.567869384765625,-0.007140226662158966,-0.0027088234201073647,-0.007441751658916473
1744926472462829300,1.577829345703125,-0.007140226662158966,-0.004527496173977852,-0.015430170111358166
1744926472472788200,1.587788330078125,-0.007242691703140736,-0.004434964619576931,-0.018562091514468193
1744926472482747400,1.597747314453125,-0.006293008569628,-0.006911171600222588,-0.02172805741429329
1744926472492707300,1.607707275390625,-0.0029863431118428707,-0.0007665581069886684,-0.01995888724923134
1744926472502666500,1.61766650390625,-0.00456027127802372,0.0030968892388045788,-0.017533546313643456
1744926472512626400,1.62762646484375,0.003550311317667365,0.002169700339436531,-0.012436384335160255
1744926472522585300,1.63758544921875,0.004729559179395437,0.00536815682426095,0.0010754300747066736
1744926472532544300,1.647544189453125,0.005421895533800125,0.005298212636262178,0.008059005253016949
1744926472542504200,1.657504150390625,0.005886084400117397,0.0046843537129461765,0.013346978463232517
1744926472552463400,1.66746337890625,0.00815837923437357,0.004522070754319429,0.018785985186696053
1744926472562422300,1.67742236328125,0.007957576774060726,-0.000743265263736248,0.02021716721355915
1744926472572382500,1.687382568359375,0.004520063754171133,-0.0014866257552057505,0.020578494295477867
1744926472582341400,1.69734130859375,-0.0017394304741173983,-0.003288254141807556,0.012907258234918118
1744926472592301300,1.70730126953125,-0.001081259222701192,-0.004736991133540869,0.009453186765313148
1744926472602260200,1.71726025390625,-0.0031622531823813915,-0.00725740659981966,0.003315932350233197
1744926472612219400,1.727219482421875,-0.008971026167273521,-0.005614455323666334,-0.005116480868309736
1744926472622179300,1.737179443359375,-0.00890205055475235,-0.0026375739835202694,-0.01343406643718481
1744926472632138200,1.74713818359375,-0.0051566557958722115,-0.0037804795429110527,-0.016164997592568398
1744926472642097400,1.757097412109375,-0.0039015079382807016,-0.0016179927624762058,-0.021261489018797874
1744926472652057300,1.767057373046875,-0.006502969190478325,-0.0005020308308303356,-0.02082955464720726
1744926472662016500,1.7770166015625,-0.0015140697360038757,0.005002723075449467,-0.0175301656126976
1744926472671976400,1.7869765625,0.003663410432636738,0.001413459423929453,-0.011119483038783073
1744926472681935400,1.796935302734375,0.005732420366257429,0.006914218422025442,-0.004064236301928759
1744926472691894300,1.806894287109375,0.006033233366906643,0.00917570199817419,0.004274528939276934
1744926472701854500,1.8168544921875,0.004384470637887716,0.007533064112067223,0.008342773653566837
1744926472711813400,1.8268134765625,0.007398274261504412,0.003120811190456152,0.016823673620820045
1744926472721772500,1.8367724609375,0.004873597528785467,-0.0013506365939974785,0.018154721707105637
1744926472731732500,1.846732421875,0.0035781506448984146,0.0017315368168056011,0.018538719043135643
1744926472741691400,1.85669140625,-0.0019638875965029,-0.004079214297235012,0.012784425169229507
1744926472751651300,1.8666513671875,0.000561168824788183,-0.00594977056607604,0.010690601542592049
1744926472761610200,1.8766103515625,-0.004712422378361225,-0.004319916013628244,0.0017125530866906047
1744926472771569200,1.886569091796875,-0.00781029649078846,-0.005559786222875118,-0.0018585112411528826
1744926472781529300,1.896529296875,-0.007599107921123505,-0.004874554928392172,-0.006206920370459557
1744926472791488500,1.906488525390625,-0.00606577331200242,-0.002747802995145321,-0.013526040129363537
1744926472801447400,1.916447509765625,-0.0042742653749883175,-0.0028218389488756657,-0.0160475205630064
1744926472811407400,1.926407470703125,-0.0020682550966739655,-0.0016484018415212631,-0.012835528701543808
1744926472821366300,1.9363662109375,0.0012726804707199335,0.0011939899995923042,-0.00965970940887928
1744926472831325200,1.9463251953125,0.001087675802409649,-0.0003153206780552864,-0.00506732240319252
1744926472841285400,1.956285400390625,0.0033979678992182016,0.006273872684687376,0.0010052175493910909
1744926472851244500,1.96624462890625,0.0036380430683493614,0.006783674471080303,0.003783818334341049
1744926472861204500,1.97620458984375,0.009479421190917492,0.013879667036235332,0.012301405891776085
1744926472871163400,1.986163330078125,0.009803061373531818,0.013727383688092232,0.016012536361813545
1744926472881122300,1.996122314453125,0.016868960112333298,0.006383450236171484,0.017814964056015015
1744926472891082200,2.006082275390625,0.01418966893106699,0.009704994037747383,0.020179271697998047
1744926472901042200,2.016042236328125,0.006611111108213663,-0.0003247377462685108,0.0169464610517025
1744926472911001000,2.0260009765625,-0.0009060129523277283,-0.008236093446612358,0.010986007750034332
1744926472920961000,2.0359609375,-0.013602366670966148,-0.013562148436903954,0.0021557644940912724
1744926472930920200,2.045920166015625,-0.023451659828424454,-0.013173932209610939,-0.007854649797081947
1744926472940880100,2.055880126953125,-0.022066283971071243,-0.012000277638435364,-0.00937771238386631
1744926472950839000,2.065839111328125,-0.011341048404574394,-0.01599879562854767,-0.005968553014099598
1744926472960798000,2.0757978515625,-0.0020050709135830402,-0.002014004858210683,-0.007761392742395401
1744926472970758100,2.085758056640625,0.008452999405562878,0.011807024478912354,-0.0012552420375868678
1744926472980717000,2.095717041015625,0.019648395478725433,0.017163706943392754,0.005569907370954752
1744926472990676200,2.10567626953125,0.033092718571424484,0.017840635031461716,0.015125908888876438
1744926473000636200,2.11563623046875,0.024483783170580864,0.0073882597498595715,0.017620759084820747
1744926473010595000,2.125594970703125,0.001142309745773673,0.009036272764205933,0.015065736137330532
1744926473020554000,2.135553955078125,-0.016019366681575775,-0.005170092917978764,0.009130881167948246
1744926473030514000,2.145513916015625,-0.021314937621355057,-0.021641138941049576,0.005914174020290375
1744926473040473300,2.155473388671875,-0.024489693343639374,-0.028444450348615646,0.0010704166488721967
1744926473050433300,2.165433349609375,-0.027849450707435608,-0.015805184841156006,-0.003606328973546624
1744926473060392200,2.17539208984375,-0.010788176208734512,-0.009964605793356895,-0.004072648473083973
1744926473070351000,2.18535107421875,0.008867301978170872,-0.0061865258030593395,-0.0022145442198961973
1744926473080311000,2.19531103515625,0.011073997244238853,0.00037044333294034004,0.00749427592381835
1744926473090270000,2.20527001953125,0.012205880135297775,0.004438326228410006,0.01724367029964924
1744926473100229000,2.21522900390625,0.010724629275500774,-0.011651162058115005,0.021132417023181915
1744926473110189300,2.225189208984375,-0.011166106909513474,-0.01853533647954464,0.01431176345795393
1744926473120148200,2.235148193359375,-0.03147830441594124,-0.017912156879901886,0.0058855218812823296
1744926473130107100,2.245107177734375,-0.03664490208029747,-0.017558537423610687,-0.006736544892191887
1744926473140067000,2.255067138671875,-0.019688289612531662,-0.018808891996741295,-0.013242647983133793
1744926473150026000,2.26502587890625,-0.0035414202138781548,-0.011767953634262085,-0.018980568274855614
1744926473159986000,2.27498583984375,0.006116000935435295,-0.0017099929973483086,-0.027054473757743835
1744926473169945000,2.284945068359375,0.015117580071091652,0.007171045057475567,-0.027946431189775467
1744926473179904300,2.294904296875,0.012875198386609554,-0.00280036311596632,-0.027044150978326797
1744926473189864200,2.3048642578125,0.0020256233401596546,0.003280093427747488,-0.030647000297904015
1744926473199823000,2.314822998046875,-0.017252467572689056,0.012525523081421852,-0.03127071261405945
1744926473209782000,2.324781982421875,-0.01781315729022026,0.013666759245097637,-0.022144796326756477
1744926473219742000,2.334741943359375,-0.0017098219832405448,0.004413872957229614,-0.014055444858968258
1744926473229701000,2.344701171875,0.011151629500091076,0.012535061687231064,0.0005458521191030741
1744926473239661300,2.354661376953125,0.016644664108753204,0.01726749911904335,0.01630324497818947
1744926473249620200,2.3646201171875,0.026595205068588257,0.01269625686109066,0.024759642779827118
1744926473259579100,2.3745791015625,0.029397383332252502,0.00914386473596096,0.02790430374443531
1744926473269539000,2.3845390625,0.01598285883665085,0.012216788716614246,0.029649503529071808
1744926473279498000,2.394498046875,-0.0015332828043028712,0.026066292077302933,0.0265961904078722
1744926473289457200,2.40445703125,-0.005289928056299686,0.016460562124848366,0.029466982930898666
1744926473299417000,2.4144169921875,0.008345456793904305,0.01004846766591072,0.03371286019682884
1744926473309376000,2.4243759765625,0.009027975611388683,0.01503690704703331,0.03701012209057808
1744926473319335200,2.434335205078125,0.010143307037651539,0.021029019728302956,0.040238406509160995
1744926473329295000,2.444295166015625,0.019854800775647163,0.02641129307448864,0.03225522115826607
1744926473339254000,2.45425390625,0.031843818724155426,0.014039313420653343,0.02371153235435486
1744926473349214000,2.4642138671875,0.03392122685909271,0.010749701410531998,0.015259332023561
1744926473359173000,2.474173095703125,0.020747102797031403,0.016627565026283264,-0.0009071202366612852
1744926473369132000,2.484132080078125,-0.0008675400749780238,0.01528448611497879,-0.018512636423110962
1744926473379092200,2.49409228515625,-0.01093322318047285,0.005948508158326149,-0.024985449388623238
1744926473389051100,2.504051025390625,-0.013788693584501743,-0.006226810626685619,-0.02630949579179287
1744926473399010300,2.51401025390625,-0.015354366041719913,-0.013519078493118286,-0.011050381697714329
1744926473408970200,2.52397021484375,-0.01626770757138729,-0.01909426413476467,-0.0014746550004929304
1744926473418929200,2.53392919921875,-0.011222350411117077,-0.01674455776810646,0.008556406944990158
1744926473428889000,2.54388916015625,-0.009612182155251503,-0.017906975001096725,0.00821799598634243
1744926473438848000,2.553847900390625,-0.005683752242475748,-0.015678973868489265,0.00708881625905633
1744926473448807000,2.563806884765625,-0.0017594040837138891,-0.01823284849524498,0.0073540350422263145
1744926473458767000,2.57376708984375,-0.001883773598819971,-0.01131795160472393,0.008941811509430408
1744926473468726300,2.583726318359375,-0.005244199652224779,-0.006758282892405987,0.005040282849222422
1744926473478685200,2.593685302734375,-0.001460912637412548,-0.008859517052769661,0.002490572165697813
1744926473488645000,2.60364501953125,0.003168033668771386,-0.01762482523918152,-0.004338996019214392
1744926473498604000,2.61360400390625,-0.008230029605329037,-0.00912028644233942,-0.006192023400217295
1744926473508563000,2.62356298828125,-0.023528682067990303,-0.005235340446233749,-0.009989816695451736
1744926473518523100,2.633523193359375,-0.022459689527750015,-0.008693454787135124,-0.006447278894484043
1744926473528482300,2.643482421875,-0.012150631286203861,-0.014499582350254059,0.004623388405889273
1744926473538442200,2.653442138671875,-0.008730866014957428,-0.02226163260638714,0.020049482583999634
1744926473548401200,2.663401123046875,-0.005383699666708708,-0.0208137184381485,0.030548837035894394
1744926473558360000,2.673360107421875,-0.005843894090503454,-0.015090318396687508,0.025615330785512924
1744926473568320000,2.683320068359375,-0.010427042841911316,-0.00752459280192852,0.021834488958120346
1744926473578279000,2.69327880859375,0.00029883853858336806,-0.005500057712197304,0.01655343919992447
1744926473588238000,2.703238037109375,0.013124365359544754,-0.01324629969894886,0.0072689722292125225
1744926473598198300,2.7131982421875,0.005031817592680454,-0.011232150718569756,0.003442276269197464
1744926473608157200,2.7231572265625,-0.015588638372719288,0.0015838774852454662,-0.010659398511052132
1744926473618117000,2.7331171875,-0.020276866853237152,-0.00046169664710760117,-0.010290550999343395
1744926473628076000,2.743075927734375,-0.01067186240106821,-0.008330538868904114,-0.003710473421961069
1744926473638035000,2.753034912109375,0.0029328949749469757,-0.016205772757530212,0.006896631326526403
1744926473647995000,2.762994873046875,0.001441268716007471,-0.009051431901752949,0.00969498511403799
1744926473657954300,2.772954345703125,-0.0072065480053424835,0.005380504298955202,0.01113335881382227
1744926473667913200,2.782913330078125,-0.0009585158550180495,0.003659011796116829,0.005839888472110033
1744926473677873200,2.792873046875,0.010581760667264462,-0.008810973726212978,0.0017018687212839723
1744926473687832000,2.80283203125,0.01085431408137083,-0.013593164272606373,-0.000029498827643692493
1744926473697791000,2.812791015625,0.0006994152790866792,-0.007211698219180107,-0.003421300556510687
1744926473707751000,2.8227509765625,-0.012260970659554005,0.0011995825916528702,-0.008637321181595325
1744926473717710000,2.8327099609375,-0.016610711812973022,0.009917174465954304,-0.00797259621322155
1744926473727670300,2.842670166015625,-0.0007713636732660234,0.012748596258461475,-0.0003802055143751204
1744926473737629200,2.852629150390625,0.013462432660162449,0.006548757664859295,0.008120338432490826
1744926473747588000,2.862588134765625,0.020491067320108414,0.01022370532155037,0.008081532083451748
1744926473757548000,2.872548095703125,0.02149374783039093,0.012536393478512764,0.0033895752858370543
1744926473767507200,2.882507080078125,0.012273467145860195,0.01402328535914421,0.0020723294001072645
1744926473777466000,2.892466064453125,0.0007166795548982918,0.013735130429267883,0.0003980000037699938
1744926473787426000,2.902426025390625,0.004725497215986252,-0.000147299375385046,0.00203894660808146
1744926473797385200,2.91238525390625,-0.00045222058543004096,-0.0040373788215219975,0.0007390577811747789
1744926473807344000,2.92234423828125,-0.012754919938743114,0.0035301637835800648,-0.009647710248827934
1744926473817304000,2.932303955078125,-0.013113914057612419,0.00027871038764715195,-0.01696234755218029
1744926473827263200,2.94226318359375,0.00040037062717601657,-0.007041909731924534,-0.014156581833958626
1744926473837223200,2.95222314453125,-0.00158608122728765,0.0019084420055150986,-0.011631372384727001
1744926473847182000,2.96218212890625,-0.005688528064638376,0.016277212649583817,-0.004388592671602964
1744926473857141000,2.97214111328125,0.010378322564065456,0.025543415918946266,0.001259705750271678
1744926473867101200,2.98210107421875,0.032086100429296494,0.010872231796383858,0.009230844676494598
1744926473877060000,2.99206005859375,0.03110366128385067,-0.0018014861270785332,0.02344653382897377
1744926473887019300,3.002019287109375,0.010396584868431091,0.00047103920951485634,0.03064613789319992
1744926473896979200,3.011979248046875,-0.008879108354449272,-0.008108867332339287,0.021334128454327583
1744926473906937900,3.021937744140625,-0.020217081531882286,-0.024882981553673744,0.003156519029289484
1744926473916896800,3.031896728515625,-0.02403338998556137,-0.03897829353809357,-0.0022622146643698215
1744926473926856700,3.041856689453125,-0.03226781636476517,-0.033005308359861374,0.00024436740204691887
1744926473936815600,3.051815673828125,-0.04072308912873268,-0.012687519192695618,-0.002429978922009468
1744926473946775600,3.061775634765625,-0.026080112904310226,0.003623858094215393,-0.00375974178314209
1744926473956735000,3.07173486328125,0.004541178233921528,0.016816094517707825,-0.0006124181672930717
1744926473966694000,3.08169384765625,0.03349202126264572,0.04098662734031677,0.0003604812081903219
1744926473976653800,3.09165380859375,0.051381006836891174,0.0416279174387455,0.005031665787100792
1744926473986612700,3.10161279296875,0.06680752336978912,0.02346777357161045,0.0006944880587980151
1744926473996572000,3.111572021484375,0.04450115188956261,0.006988133769482374,-0.004350604489445686
1744926474006531800,3.12153173828125,-0.011406525038182735,0.007668886333703995,0.004597898572683334
1744926474016490800,3.13149072265625,-0.03714144974946976,-0.0001413663849234581,0.007796354591846466
1744926474026449700,3.14144970703125,-0.0327158160507679,-0.02430345118045807,0.011792256496846676
1744926474036409900,3.151409912109375,-0.02846701070666313,-0.022363871335983276,0.019873619079589844
1744926474046368800,3.16136865234375,-0.01943676359951496,-0.004421090707182884,0.009624975733458996
1744926474056328700,3.17132861328125,0.0015058026183396578,0.013261500746011734,0.00028234056662768126
1744926474066287900,3.181287841796875,0.02575436793267727,0.020922882482409477,-0.014564720913767815
1744926474076246800,3.191246826171875,0.04092506691813469,0.023799894377589226,-0.0254938006401062
1744926474086206700,3.201206787109375,0.0434429906308651,0.012178199365735054,-0.025611182674765587
1744926474096166000,3.211165771484375,0.022135570645332336,-0.003934991080313921,-0.024045776575803757
1744926474106124800,3.221124755859375,-0.014002259820699692,-0.008637383580207825,-0.021551208570599556
1744926474116084700,3.231084716796875,-0.04683557525277138,-0.00890636257827282,-0.02055305615067482
1744926474126044000,3.2410439453125,-0.04483041167259216,-0.02437341958284378,-0.011543301865458488
1744926474136002800,3.2510029296875,-0.03137798607349396,-0.027642184868454933,-0.004518414847552776
1744926474145962800,3.260962646484375,-0.0189113337546587,-0.007767378352582455,-0.010161683894693851
1744926474155921700,3.270921630859375,0.001438946695998311,0.007235805969685316,0.00015806593000888824
1744926474165881900,3.2808818359375,0.02678297646343708,0.008207617327570915,0.006826730910688639
1744926474175840800,3.2908408203125,0.035595111548900604,0.01118716225028038,0.007338057737797499
1744926474185800000,3.300800048828125,0.021499931812286377,0.0201509278267622,0.011622315272688866
1744926474195759900,3.310759765625,0.007472529541701078,0.013079702854156494,0.015448478050529957
1744926474205718800,3.32071875,-0.001785921398550272,-0.0006687212735414505,0.00778542086482048
1744926474215677700,3.330677734375,-0.013064408674836159,-0.008228902705013752,0.00823789183050394
1744926474225637600,3.3406376953125,-0.020540082827210426,-0.009263637475669384,0.002031426876783371
1744926474235596800,3.3505966796875,-0.013614265248179436,-0.010316384956240654,-0.00570745300501585
1744926474245556000,3.360555908203125,-0.004101464990526438,-0.006422603502869606,-0.004529974889010191
1744926474255516000,3.370515869140625,0.0011383043602108955,0.0025751525536179543,-0.0022553689777851105
1744926474265474800,3.380474853515625,0.01046926062554121,0.00490159448236227,-0.002719464711844921
1744926474275434800,3.390434814453125,0.014893569983541965,-0.0006561563350260258,-0.004133070353418589
1744926474285393700,3.4003935546875,0.00846096035093069,-0.0028612795285880566,-0.0014168176567181945
1744926474295352600,3.4103525390625,-0.004487062804400921,0.0013047032989561558,0.002315070014446974
1744926474305312800,3.420312744140625,-0.011359605938196182,-0.005261560901999474,-0.003500835970044136
1744926474315272000,3.43027197265625,-0.012534592300653458,-0.015567461028695107,-0.009762726724147797
1744926474325230800,3.44023095703125,-0.018976835533976555,-0.010986581444740295,-0.01180228590965271
1744926474335190800,3.450190673828125,-0.024159880355000496,0.00812026672065258,-0.007112724706530571
1744926474345149700,3.460149658203125,-0.0038929858710616827,0.013315150514245033,-0.013035250827670097
1744926474355108900,3.47010888671875,0.024114148691296577,0.01702067255973816,-0.017729604616761208
1744926474365068800,3.48006884765625,0.035990990698337555,0.02471958100795746,-0.016591213643550873
1744926474375028000,3.490028076171875,0.0377659872174263,0.018857963383197784,-0.006224592216312885
1744926474384988000,3.49998779296875,0.024147817865014076,0.008990757167339325,-0.0009711775928735733
1744926474394946800,3.50994677734375,-0.0074761551804840565,0.00294351764023304,0.00216123228892684
1744926474404905700,3.51990576171875,-0.027178039774298668,-0.007909831590950489,0.004038463346660137
1744926474414865700,3.52986572265625,-0.02930457517504692,-0.022728990763425827,0.007855838164687157
1744926474424824800,3.539824951171875,-0.021739065647125244,-0.02979222685098648,0.014141163788735867
1744926474434783700,3.54978369140625,-0.02099231630563736,-0.01486307941377163,0.011253232136368752
1744926474444744000,3.559743896484375,-0.011840838938951492,-0.0026972030755132437,0.0036018146201968193
1744926474454702800,3.569702880859375,0.012336136773228645,0.0042818766087293625,-0.0006302146939560771
1744926474464661800,3.579661865234375,0.02492371015250683,0.009909596294164658,-0.006108461879193783
1744926474474621700,3.58962158203125,0.021349214017391205,0.01791292615234852,-0.00832154881209135
1744926474484580900,3.599580810546875,0.011824695393443108,0.013532586395740509,-0.001641370472498238
1744926474494540800,3.609540771484375,0.005511672701686621,0.01328970491886139,-0.005415868945419788
1744926474504499700,3.619499755859375,-0.005842030048370361,0.009427274577319622,-0.003527108347043395
1744926474514459000,3.629458984375,-0.010006947442889214,0.002760583534836769,0.00636493694037199
1744926474524418800,3.639418701171875,-0.00886144582182169,-0.005040736403316259,0.008722227066755295
1744926474534377700,3.649377685546875,-0.002378779696300626,-0.011508755385875702,0.0038529043085873127
1744926474544337000,3.6593369140625,-0.006816252134740353,-0.015118186362087727,0.004322998691350222
1744926474554296800,3.669296875,-0.008782198652625084,-0.007980382069945335,0.001476878416724503
1744926474564255700,3.679255859375,-0.0045644259080290794,-0.005084121134132147,-0.004457052331417799
1744926474574214700,3.689214599609375,0.0012814791407436132,-0.0059448545798659325,-0.00629703002050519
1744926474584174800,3.6991748046875,0.000561474182177335,-0.0006765411235392094,-0.008313089609146118
1744926474594133800,3.7091337890625,-0.00040205742698162794,0.0001162816770374775,-0.01311210636049509
1744926474604093700,3.71909375,0.001511899521574378,-0.0054398952051997185,-0.014695199206471443
1744926474614052900,3.729052978515625,-0.0031536922324448824,-0.01203308254480362,-0.011775841936469078
1744926474624011800,3.73901171875,-0.009081102907657623,-0.01534615270793438,-0.013081967830657959
1744926474633971700,3.7489716796875,-0.012511520646512508,-0.011824121698737144,-0.009677383117377758
1744926474643930600,3.7589306640625,-0.01717078499495983,-0.016752813011407852,-0.004389484412968159
1744926474653889800,3.768889892578125,-0.012782962992787361,-0.008997155353426933,-0.0007689172634854913
1744926474663849700,3.778849609375,-0.009366171434521675,-0.007139331661164761,0.005919673480093479
1744926474673809000,3.788808837890625,-0.003232646035030484,0.004763400182127953,0.008896554820239544
1744926474683767800,3.798767822265625,0.006483155302703381,0.009016759693622589,0.0023146620951592922
1744926474693727700,3.808727783203125,0.020381927490234375,0.011553953401744366,0.0018510058289393783
1744926474703686700,3.818686767578125,0.026749858632683754,0.0004596845246851444,0.00646626204252243
1744926474713646800,3.828646728515625,0.016632508486509323,0.0032903584651649,0.005512584000825882
1744926474723605800,3.838605712890625,-0.0012195813469588757,0.005402705632150173,-0.0030069928616285324
1744926474733565000,3.84856494140625,-0.013813404366374016,0.00012485310435295105,-0.000768605968914926
1744926474743524900,3.85852490234375,-0.020641634240746498,-0.001571266446262598,0.008222444914281368
1744926474753483800,3.86848388671875,-0.01927516609430313,-0.0033057830296456814,0.01485398318618536
1744926474763442700,3.878442626953125,-0.005118887405842543,-0.002753298031166196,0.025296220555901527
1744926474773402600,3.888402587890625,0.00735242897644639,0.0031032594852149487,0.022086046636104584
1744926474783361800,3.89836181640625,0.020088817924261093,0.006150351837277412,0.014602062292397022
1744926474793321000,3.908321044921875,0.029527857899665833,0.007101099938154221,0.010907991789281368
1744926474803281000,3.918281005859375,0.0223006010055542,0.004669246729463339,0.008931581862270832
1744926474813239800,3.92823974609375,0.003936507739126682,0.006528665777295828,-0.005619663745164871
1744926474823199700,3.93819970703125,-0.012286623008549213,0.009076511487364769,-0.014863823540508747
1744926474833158700,3.94815869140625,-0.016378303989768028,0.008152661845088005,-0.020588021725416183
1744926474843117800,3.958117919921875,-0.007954535074532032,-0.0010178124066442251,-0.019696786999702454
1744926474853078000,3.968078125,0.0006834276136942208,-0.0073998114094138145,-0.01997349038720131
1744926474863037000,3.978036865234375,0.002815439598634839,-0.005553490947932005,-0.02292795479297638
1744926474872995800,3.987995849609375,0.005194707773625851,-0.005179583095014095,-0.012478777207434177
1744926474882955800,3.997955810546875,0.0019764970056712627,-0.012481632642447948,-0.007796138525009155
1744926474892914700,4.007914794921875,-0.010600280947983265,-0.013815609738230705,0.00482910918071866
1744926474902873600,4.01787353515625,-0.02261631190776825,-0.009001728147268295,0.013885234482586384
1744926474912833800,4.027833740234375,-0.019400810822844505,-0.012434808537364006,0.018433649092912674
1744926474922792700,4.037792724609375,-0.015385761857032776,-0.01222037523984909,0.020774582400918007
1744926474932752600,4.047752685546875,-0.004749630112200975,0.00014228466898202896,0.024917395785450935
1744926474942711600,4.057711669921875,0.004610068630427122,0.0035970578901469707,0.026049787178635597
1744926474952670500,4.06767041015625,0.016720527783036232,0.005720928777009249,0.020936785265803337
1744926474962630400,4.07763037109375,0.021861352026462555,0.0022884528152644634,0.011287743225693703
1744926474972589800,4.08758984375,0.014293179847300053,-0.0018927098717540503,0.002616757759824395
1744926474982548700,4.097548828125,0.0029093169141560793,-0.0036526236217468977,0.006607536226511002
1744926474992508700,4.1075087890625,-0.02231188490986824,0.0020779664628207684,0.005158776883035898
1744926475002467600,4.117467529296875,-0.022710083052515984,0.006039394531399012,-0.003909929655492306
1744926475012426500,4.127426513671875,-0.01113811507821083,-0.0034819392021745443,-0.004554414190351963
1744926475022386400,4.137386474609375,0.0012742599938064814,-0.00803797785192728,0.0016730899224057794
1744926475032345600,4.147345703125,0.011259250342845917,0.0006487211212515831,-0.0012856819666922092
1744926475042305800,4.157305908203125,0.017288293689489365,-0.006655434146523476,-0.004913737997412682
1744926475052264700,4.1672646484375,0.012435749173164368,-0.008091410622000694,-0.015826573595404625
1744926475062223600,4.1772236328125,0.0011063001584261656,-0.005941368639469147,-0.022393863648176193
1744926475072183600,4.18718359375,-0.009815855883061886,-0.013343891128897667,-0.022528620436787605
1744926475082142500,4.197142578125,-0.0164128877222538,-0.02647225745022297,-0.024153102189302444
1744926475092101600,4.2071015625,-0.029481548815965652,-0.024387801066040993,-0.023498762398958206
1744926475102061600,4.2170615234375,-0.041841376572847366,-0.013773966580629349,-0.024732276797294617
1744926475112020700,4.227020751953125,-0.03209846839308739,-0.010222641751170158,-0.02011169120669365
1744926475121979600,4.236979736328125,-0.004656210541725159,-0.003731040982529521,-0.019151639193296432
1744926475131939600,4.246939697265625,0.0250721238553524,0.00363765936344862,-0.014440507628023624
1744926475141898800,4.256898681640625,0.04204912856221199,0.013064403086900711,-0.00758734904229641
1744926475151858700,4.266858642578125,0.04172608628869057,0.009818807244300842,0.002695382572710514
1744926475161817600,4.276817626953125,0.018071956932544708,0.004721902776509523,0.013713100925087929
1744926475171776500,4.286776611328125,-0.01584686152637005,0.004368501249700785,0.01637413166463375
1744926475181736700,4.29673681640625,-0.04143938422203064,0.01154850609600544,0.011836777441203594
1744926475191695600,4.306695556640625,-0.03403925895690918,0.0015241019427776337,0.016639523208141327
1744926475201654800,4.31665478515625,0.0014611711958423257,-0.010343986563384533,0.020289085805416107
1744926475211614700,4.32661474609375,0.01832696981728077,-0.00706430384889245,0.015270623378455639
1744926475221573600,4.33657373046875,0.021628305315971375,0.0020702192559838295,0.00004599173553287983
1744926475231532500,4.346532470703125,0.019475139677524567,0.00788123719394207,-0.016006743535399437
1744926475241492500,4.356492431640625,0.013279199600219727,0.006326556205749512,-0.02080569602549076
1744926475251451600,4.36645166015625,-0.001455803751014173,0.0029552606865763664,-0.017895661294460297
1744926475261411600,4.37641162109375,-0.013601035811007023,-0.004740960896015167,-0.022093381732702255
1744926475271370800,4.386370849609375,-0.02192527800798416,-0.004810202866792679,-0.025442305952310562
1744926475281329700,4.39632958984375,-0.025343161076307297,-0.007486293558031321,-0.02135646902024746
1744926475291289600,4.40628955078125,-0.018640784546732903,-0.005658566020429134,-0.015126536600291729
1744926475301248500,4.41624853515625,-0.002609239425510168,-0.0034638075157999992,-0.00688383262604475
1744926475311207400,4.42620751953125,0.008479896932840347,0.0030292454175651073,-0.006363717373460531
1744926475321167600,4.436167724609375,0.021455559879541397,0.010783547535538673,-0.011057648807764053
1744926475331126800,4.446126708984375,0.0285094752907753,0.018932288512587547,-0.0017882504034787416
1744926475341085700,4.456085693359375,0.026338627561926842,0.01425815187394619,0.003531898371875286
1744926475351045600,4.466045654296875,0.011815878562629223,0.008029550313949585,0.004162268713116646
1744926475361004500,4.476004638671875,-0.007116430904716253,0.009778399020433426,-0.004290230572223663
1744926475370963500,4.48596337890625,-0.018414892256259918,0.014543060213327408,-0.0017264053458347917
1744926475380923400,4.49592333984375,-0.01269655954092741,0.010477456264197826,0.008973738178610802
1744926475390882800,4.5058828125,0.005780451465398073,0.005979376845061779,0.01263478584587574
1744926475400842800,4.5158427734375,0.02043905109167099,0.015544265508651733,0.010548120364546776
1744926475410801700,4.5258017578125,0.028539853170514107,0.017841774970293045,0.006819695234298706
1744926475420760600,4.535760498046875,0.026087284088134766,0.014698663726449013,0.0151372654363513
1744926475430720500,4.545720458984375,0.013512636534869671,0.009858900681138039,0.01859857700765133
1744926475440679400,4.555679443359375,-0.003693781327456236,0.010268494486808777,0.01176650170236826
1744926475450638600,4.565638671875,-0.010662474669516087,0.007014377508312464,0.005577848292887211
1744926475460598800,4.575598876953125,-0.0052725886926054955,0.0009014550596475601,-0.0008776856120675802
1744926475470557700,4.5855576171875,-0.0005446791183203459,-0.00008897483348846436,-0.0023517452646046877
1744926475480516600,4.5955166015625,-0.003892129985615611,0.003134708385914564,-0.0011124350130558014
1744926475490476500,4.6054765625,-0.0026231338270008564,-0.001164166023954749,-0.0029050088487565517
1744926475500435700,4.615435791015625,-0.001051897183060646,-0.00431882543489337,-0.003071378218010068
1744926475510395600,4.625395751953125,0.0008890146273188293,-0.0017589950002729893,-0.001402108813636005
1744926475520354600,4.6353544921875,-0.0038175731897354126,-0.002781068440526724,-0.002602319000288844
1744926475530313700,4.645313720703125,-0.0028543078806251287,0.0011838455684483051,-0.004576786421239376
1744926475540273700,4.655273681640625,0.004813810344785452,0.002838614396750927,-0.008918678387999535
1744926475550232600,4.665232666015625,0.010821634903550148,0.0002468256279826164,-0.018493540585041046
1744926475560191700,4.675191650390625,0.005867470987141132,0.008651010692119598,-0.017928464338183403
1744926475570151700,4.685151611328125,0.0003515317221172154,0.011032409965991974,-0.01581018604338169
1744926475580110600,4.695110595703125,0.0004529696307145059,0.006625265348702669,-0.018823208287358284
1744926475590069500,4.705069580078125,0.0019480683840811253,0.005829778965562582,-0.015880681574344635
1744926475600029700,4.71502978515625,0.002171602100133896,0.003817688673734665,-0.00848940759897232
1744926475609988600,4.724988525390625,0.003485605586320162,0.0009619812481105328,0.0009890487417578697
1744926475619948500,4.734948486328125,0.005941915325820446,-0.0036374195478856564,-0.0008998048724606633
1744926475629907700,4.74490771484375,0.004325909540057182,-0.0043567391112446785,-0.004177889786660671
1744926475639866600,4.75486669921875,-0.0038334266282618046,-0.002974268514662981,-0.001656298991292715
1744926475649826600,4.76482666015625,-0.01384185254573822,-0.004656587261706591,0.004296931438148022
1744926475659785500,4.774785400390625,-0.013902125880122185,0.00211512902751565,0.00687031215056777
1744926475669744600,4.78474462890625,-0.006222900003194809,0.009038548916578293,0.0022627771832048893
1744926475679704600,4.79470458984375,0.010623086243867874,0.013512104749679565,-0.005370956379920244
1744926475689663700,4.804663818359375,0.024089094251394272,0.01274804212152958,-0.000624404288828373
1744926475699622700,4.81462255859375,0.031769558787345886,0.01100827194750309,0.003786120330914855
1744926475709582600,4.82458251953125,0.020939011126756668,0.0037325159646570683,-0.0033711253199726343
1744926475719541500,4.83454150390625,-0.0008105863234959543,0.0007272111251950264,-0.01202926505357027
1744926475729500400,4.84450048828125,-0.024626437574625015,-0.0001841224730014801,-0.01854655146598816
1744926475739460600,4.854460693359375,-0.02827422507107258,-0.001707741292193532,-0.014052844606339931
1744926475749419800,4.864419677734375,-0.017011450603604317,-0.008031416684389114,-0.007776839658617973
1744926475759379700,4.874379638671875,-0.0008243682095780969,0.00009449291974306107,-0.007609201595187187
1744926475769338600,4.884338623046875,0.012802227400243282,0.012100821360945702,-0.00512979831546545
1744926475779297500,4.894297607421875,0.027055665850639343,0.016996461898088455,-0.006863797549158335
1744926475789257500,4.904257568359375,0.033691730350255966,0.012068815529346466,-0.0015547859948128462
1744926475799216400,4.91421630859375,0.028198616579174995,0.014056453481316566,0.0012667063856497407
1744926475809175800,4.92417578125,0.007345534395426512,0.019932452589273453,-0.005301713943481445
1744926475819135700,4.9341357421875,-0.002855599159374833,0.017343617975711823,-0.009742753580212593
1744926475829094700,4.9440947265625,-0.008700438775122166,0.010594899766147137,-0.00975606869906187
1744926475839053600,4.954053466796875,-0.007894975133240223,0.00932171568274498,-0.0010221072006970644
1744926475849013500,4.964013427734375,0.0002519009285606444,0.0034454516135156155,0.007005991879850626
1744926475858972700,4.97397265625,0.007904818281531334,0.005380262155085802,0.006455093622207642
1744926475868932600,4.9839326171875,0.013465764932334423,0.008691370487213135,0.004175960086286068
1744926475878891800,4.993891845703125,0.018332015722990036,0.008311410434544086,0.007078664377331734
1744926475888850700,5.0038505859375,0.01889953576028347,0.003554738126695156,0.007102100178599358
1744926475898810600,5.013810546875,0.010318582877516747,-0.001791171496734023,0.006223273929208517
1744926475908769800,5.023769775390625,-0.008116883225739002,-0.0013581414241343737,-0.004369715694338083
1744926475918728700,5.033728759765625,-0.022187750786542892,-0.001156830694526434,-0.013245608657598495
1744926475928689000,5.04368896484375,-0.023108405992388725,-0.008472001180052757,-0.014159605838358402
1744926475938648000,5.05364794921875,-0.013474821113049984,-0.00947591569274664,-0.007163451984524727
1744926475948607000,5.06360693359375,-0.002120434306561947,-0.00214769528247416,-0.0058664921671152115
1744926475958567000,5.07356689453125,0.005668475292623043,0.011017205193638802,-0.007964357733726501
1744926475968525800,5.08352587890625,0.014009496197104454,0.016647927463054657,-0.004531809128820896
1744926475978485800,5.09348583984375,0.022349905222654343,0.010061518289148808,-0.0013206960866227746
1744926475988445000,5.10344482421875,0.02083723060786724,0.005248386412858963,0.0019051908748224378
1744926475998403800,5.11340380859375,0.0021258436609059572,0.006149551831185818,0.0046140821650624275
1744926476008364000,5.123364013671875,-0.010328962467610836,0.003438454121351242,0.002065969631075859
1744926476018323000,5.133322998046875,-0.011421790346503258,-0.01077607087790966,0.001206330955028534
1744926476028281900,5.14328173828125,-0.01035066694021225,-0.01812133565545082,0.006303355097770691
1744926476038241800,5.15324169921875,-0.014061752706766129,-0.01269792951643467,0.01244772132486105
1744926476048201000,5.163200927734375,-0.01569320634007454,-0.009007319808006287,0.010475385002791882
1744926476058159900,5.173159912109375,-0.006723983213305473,-0.0023634356912225485,0.010574894025921822
1744926476068120000,5.1831201171875,0.006290885154157877,0.00031224219128489494,0.009464621543884277
1744926476078079000,5.193078857421875,0.014419831335544586,0.006519901566207409,0.01867673173546791
1744926476088039000,5.203038818359375,0.018814846873283386,0.010945543646812439,0.020508719608187675
1744926476097997800,5.212997802734375,0.02235228568315506,0.013230363838374615,0.010813388042151928
1744926476107957000,5.22295703125,0.01669413410127163,0.009699812158942223,0.0038827783428132534
1744926476117917000,5.2329169921875,0.00008971442002803087,0.008912388235330582,0.0001507488777860999
1744926476127875800,5.242875732421875,-0.005231547635048628,0.005353605840355158,0.002207508310675621
1744926476137834800,5.252834716796875,-0.004443251993507147,-0.005959236063063145,0.003320443443953991
1744926476147795000,5.262794921875,-0.009212973527610302,-0.006854058243334293,0.0012793965870514512
1744926476157753900,5.27275390625,-0.009340929798781872,-0.0020276843570172787,-0.003069936763495207
1744926476167713000,5.282713134765625,-0.004257220774888992,0.0019710520282387733,0.004146431107074022
1744926476177673000,5.2926728515625,0.005334199871867895,-0.0033902297727763653,0.005239923484623432
1744926476187631900,5.3026318359375,0.007701217196881771,-0.0032067380379885435,0.00625139195472002
1744926476197590800,5.3125908203125,0.005800863262265921,0.0015578027814626694,0.005353234242647886
1744926476207551000,5.322551025390625,-0.0011782165383920074,0.0018526148051023483,0.00013956369366496801
1744926476217510000,5.332510009765625,-0.0011084417346864939,-0.007833302021026611,0.000689772772602737
1744926476227469800,5.3424697265625,-0.005808388348668814,-0.016868874430656433,0.0012426449684426188
1744926476237429000,5.352428955078125,-0.015773937106132507,-0.013385459780693054,-0.0005858814110979438
1744926476247388000,5.362387939453125,-0.023714950308203697,-0.008993641473352909,-0.005920192692428827
1744926476257347800,5.372347900390625,-0.016743946820497513,-0.0029886486008763313,-0.007717592641711235
1744926476267306800,5.382306640625,-0.002377257449552417,0.00284047843888402,-0.0029252339154481888
1744926476277265700,5.392265625,0.013770515099167824,0.010787979699671268,0.003421518485993147
1744926476287225900,5.402225830078125,0.026426922529935837,0.014861284755170345,0.004161078482866287
1744926476297185000,5.41218505859375,0.029578743502497673,0.008394451811909676,0.0013541848165914416
1744926476307144000,5.42214404296875,0.01632152870297432,0.004170944448560476,0.0024343631230294704
1744926476317103900,5.432103759765625,-0.00261822622269392,-0.0030472392681986094,0.004006912931799889
1744926476327062800,5.442062744140625,-0.024202613160014153,-0.010801032185554504,-0.0014291314873844385
1744926476337023000,5.45202294921875,-0.029529068619012833,-0.014231085777282715,-0.00003253994509577751
1744926476346982000,5.46198193359375,-0.026174817234277725,-0.01733952760696411,-0.00177664402872324
1744926476356941000,5.471941162109375,-0.014611619524657726,-0.011712946929037571,-0.0015148385427892208
1744926476366901000,5.48190087890625,0.002489602891728282,-0.003960751462727785,0.003107876516878605
1744926476376860000,5.49185986328125,0.01767702028155327,-0.0026044275145977736,-0.0007077444461174309
1744926476386818800,5.50181884765625,0.019635776057839394,-0.0006632492877542973,-0.005135782063007355
1744926476396778800,5.51177880859375,0.007507683243602514,0.008634354919195175,-0.014063606970012188
1744926476406738000,5.521738037109375,-0.004527674056589603,0.016377495601773262,-0.014519007876515388
1744926476416696800,5.53169677734375,-0.004285288974642754,0.009915238246321678,-0.01351570151746273
1744926476426657000,5.541656982421875,0.005780660547316074,0.011052673682570457,-0.006813324522227049
1744926476436616000,5.551615966796875,0.010634529404342175,0.014331268146634102,-0.0018914412939921021
1744926476446574800,5.561574951171875,0.012342414818704128,0.013929929584264755,0.004546750336885452
1744926476456534800,5.57153466796875,0.015406160615384579,0.004910866264253855,0.005950441583991051
1744926476466494000,5.581493896484375,0.01731831021606922,-0.0014498273376375437,0.009019201621413231
1744926476476454100,5.5914541015625,0.003289691172540188,-0.0030341651290655136,0.0051333969458937645
1744926476486413000,5.6014130859375,-0.013004593551158905,-0.0038413694128394127,0.004355221055448055
1744926476496372000,5.6113720703125,-0.015027719549834728,-0.010034138336777687,0.005674411542713642
1744926476506332000,5.621331787109375,-0.013540077954530716,-0.013262422755360603,0.006874431390315294
1744926476516290800,5.631290771484375,-0.014144263230264187,-0.008464301936328411,0.011177332140505314
1744926476526250000,5.64125,-0.008637112565338612,-0.0059148576110601425,0.009792488999664783
1744926476536210000,5.6512099609375,0.005379998125135899,-0.0071836598217487335,0.0057473499327898026
1744926476546168800,5.6611689453125,0.009449574165046215,-0.001481565646827221,-0.00017951475456357002
1744926476556127700,5.671127685546875,0.004518494009971619,0.0041852532885968685,-0.0053626373410224915
1744926476566088000,5.681087890625,0.003671608865261078,0.002441149204969406,-0.009341932833194733
1744926476576046800,5.691046875,0.007763556204736233,-0.0038990385364741087,-0.009350987151265144
1744926476586006800,5.7010068359375,-0.0007231395575217903,-0.01034894771873951,-0.012057024985551834
1744926476595966000,5.710966064453125,-0.011223927140235901,-0.007482297718524933,-0.010697371326386929
1744926476605924900,5.7209248046875,-0.015755828469991684,-0.0021692912559956312,-0.0048448084853589535
1744926476615885000,5.730885009765625,-0.015398983843624592,-0.0027843359857797623,-0.004222178366035223
1744926476625844000,5.740843994140625,-0.0009606565581634641,-0.0053604114800691605,-0.003549197455868125
1744926476635803000,5.750802978515625,0.009313486516475677,-0.006977264769375324,0.005770519375801086
1744926476645762800,5.7607626953125,0.006067893002182245,-0.0025723965372890234,0.014644970186054707
1744926476655722000,5.770721923828125,-0.0010420344769954681,-0.0020463252440094948,0.016021795570850372
1744926476665681000,5.780680908203125,-0.0037387514021247625,-0.002677760785445571,0.015977052971720695
1744926476675640800,5.790640869140625,-0.003358556656166911,-0.008094849064946175,0.018643835559487343
1744926476685599700,5.800599853515625,-0.005296539049595594,-0.010747624561190605,0.023939797654747963
1744926476695559000,5.810558837890625,-0.0035332413390278816,-0.008925972506403923,0.026551902294158936
1744926476705518800,5.820518798828125,-0.002954269992187619,-0.004854266066104174,0.019201843068003654
1744926476715478000,5.83047802734375,0.0007634942303411663,0.006877999287098646,0.009974351152777672
1744926476725438000,5.84043798828125,0.0029590041376650333,0.009831178933382034,0.007319446187466383
1744926476735396900,5.85039697265625,0.01196921057999134,0.011648737825453281,0.010249973274767399
1744926476745355800,5.860355712890625,0.015566076152026653,0.005409217439591885,0.012704608961939812
1744926476755316000,5.87031591796875,0.009098389185965061,0.0028534303419291973,0.011328834109008312
1744926476765275000,5.88027490234375,-0.0014224284095689654,-0.0005599432624876499,0.013539524748921394
1744926476775234000,5.890234130859375,-0.011609761044383049,-0.003154903184622526,0.008380558341741562
1744926476785194000,5.900194091796875,-0.019100435078144073,-0.008954202756285667,0.013371322304010391
1744926476795153000,5.91015283203125,-0.016134491190314293,-0.00923954788595438,0.011207753792405128
1744926476805111800,5.92011181640625,-0.008566852658987045,-0.005591549910604954,0.009963259100914001
1744926476815071700,5.93007177734375,0.0022576414048671722,-0.000026996247470378876,0.005285010673105717
1744926476825031000,5.940031005859375,0.008916609920561314,0.0038420441560447216,0.003362740855664015
1744926476834991000,5.9499912109375,0.011204474605619907,0.011570779606699944,0.0018962945323437452
1744926476844950000,5.959949951171875,0.010451865382492542,0.01347494125366211,0.0027120206505060196
1744926476854909000,5.969908935546875,0.009201785549521446,0.007344101555645466,0.002886895090341568
1744926476864868900,5.979868896484375,0.0022107218392193317,0.0034513594582676888,0.00930617842823267
1744926476874827800,5.989827880859375,-0.008073520846664906,0.004256336018443108,0.018885601311922073
1744926476884787000,5.999786865234375,-0.008418400771915913,0.0004280419088900089,0.022872086614370346
1744926476894747100,6.0097470703125,-0.0021914637181907892,0.00019949348643422127,0.024156248196959496
1744926476904705500,6.01970556640625,0.0032190142665058374,0.012487584725022316,0.0277232863008976
1744926476914664400,6.02966455078125,0.010026595555245876,0.014540374279022217,0.022637352347373962
1744926476924624600,6.039624755859375,0.02229631133377552,0.011280931532382965,0.016262277960777283
1744926476934583600,6.04958349609375,0.023996824398636818,0.01335170865058899,0.012621767818927765
1744926476944542700,6.059542724609375,0.016355417668819427,0.01871851086616516,0.012037736363708973
1744926476954502700,6.069502685546875,0.008822314441204071,0.011236190795898438,0.009460297413170338
1744926476964461600,6.079461669921875,0.006313350051641464,-0.003899885341525078,0.006201653741300106
1744926476974421500,6.08942138671875,-0.0018439211416989565,-0.011297106742858887,0.010254546999931335
1744926476984380700,6.099380615234375,-0.01756083220243454,-0.01329793967306614,0.006592966616153717
1744926476994339600,6.109339599609375,-0.023018669337034225,-0.019955843687057495,0.00009958632290363312
1744926477004299500,6.119299560546875,-0.02226286381483078,-0.022075453773140907,-0.0012114879209548235
1744926477014258700,6.1292587890625,-0.02116919867694378,-0.01300525851547718,-0.004418077412992716
1744926477024217600,6.139217529296875,-0.015655389055609703,-0.006056271493434906,0.002258201129734516
1744926477034177500,6.149177490234375,0.000660657708067447,-0.008408981375396252,0.0019349736394360662
1744926477044136400,6.159136474609375,0.011386006139218807,-0.013681241311132908,-0.0015990410465747118
1744926477054095600,6.169095703125,0.00442685279995203,-0.009406866505742073,-0.010802597738802433
1744926477064055800,6.179055908203125,-0.0055360328406095505,-0.006871004588901997,-0.014288942329585552
1744926477074014700,6.1890146484375,-0.007443360053002834,-0.008697522804141045,-0.017962850630283356
1744926477083973600,6.1989736328125,-0.006813788786530495,-0.018643897026777267,-0.01810186728835106
1744926477093933600,6.20893359375,-0.01168113388121128,-0.0278080515563488,-0.01446883101016283
1744926477103892500,6.218892578125,-0.020783819258213043,-0.022977076470851898,-0.002591398311778903
1744926477113852400,6.228852294921875,-0.03036193549633026,-0.02479364350438118,0.0039556073024868965
1744926477123811800,6.238811767578125,-0.029129423201084137,-0.0276245828717947,0.004594766069203615
1744926477133770800,6.248770751953125,-0.025365302339196205,-0.02515634149312973,0.002286775503307581
1744926477143730700,6.258730712890625,-0.018989162519574165,-0.015802521258592606,0.018078256398439407
1744926477153689600,6.268689697265625,-0.005703022703528404,-0.003216373734176159,0.02504337951540947
1744926477163648500,6.2786484375,0.011983828619122505,0.0076637049205601215,0.017505301162600517
1744926477173608400,6.2886083984375,0.02365049161016941,0.025546517223119736,0.010879136621952057
1744926477183567600,6.298567626953125,0.031210405752062798,0.031981244683265686,0.0036451921332627535
1744926477193526500,6.308526611328125,0.041055258363485336,0.013728182762861252,-0.002540907822549343
1744926477203486700,6.31848681640625,0.03181355446577072,-0.0013892513234168291,0.0013840588508173823
1744926477213445600,6.328445556640625,-0.00876323226839304,0.0018757348880171776,-0.003093529026955366
1744926477223404500,6.338404541015625,-0.03779967501759529,-0.000010049436241388321,-0.011190071702003479
1744926477233364500,6.348364501953125,-0.03204412758350372,-0.018619298934936523,-0.014482930302619934
1744926477243323600,6.35832373046875,-0.019055094569921494,-0.036919742822647095,-0.007741670124232769
1744926477253283600,6.36828369140625,-0.02138512209057808,-0.024097032845020294,0.0006737303920090199
1744926477263242800,6.37824267578125,-0.022760113701224327,-0.005012820474803448,-0.005209991708397865
1744926477273201700,6.38820166015625,-0.0029702861793339252,0.0028785858303308487,-0.013400135561823845
1744926477283161600,6.39816162109375,0.019480161368846893,0.00045271217823028564,-0.009121234528720379
1744926477293120500,6.40812060546875,0.026861710473895073,0.0001070820726454258,-0.00045609247172251344
1744926477303079700,6.41807958984375,0.022836076095700264,0.001703381072729826,0.010923594236373901
1744926477313039600,6.42803955078125,-0.0028168309945613146,-0.0008365004323422909,0.008429905399680138
1744926477322998500,6.43799853515625,-0.026336271315813065,-0.0006924234330654144,0.0013000909239053726
1744926477332957400,6.44795751953125,-0.029125068336725235,-0.004685517866164446,0.0014873261097818613
1744926477342917600,6.457917724609375,-0.017557894811034203,-0.015724319964647293,0.0035459494683891535
1744926477352876500,6.46787646484375,-0.0019982706289738417,-0.016542688012123108,0.002708700019866228
1744926477362835700,6.477835693359375,0.009263172745704651,-0.0018377767410129309,-0.0015177364693954587
1744926477372795600,6.487795654296875,0.011442351154983044,0.014335697516798973,-0.010736833326518536
1744926477382754600,6.497754638671875,0.01262239832431078,0.02467275783419609,-0.017372896894812584
1744926477392714500,6.507714599609375,0.030318627133965492,0.008610192686319351,-0.016690218821167946
1744926477402673700,6.517673583984375,0.016205472871661186,0.005793898832052946,0.0007971613667905331
1744926477412632600,6.527632568359375,-0.02568444423377514,0.02088845521211624,0.014077717438340187
1744926477422592500,6.537592529296875,-0.023079339414834976,0.0017081024125218391,0.008434745483100414
1744926477432551700,6.5475517578125,-0.0010296506807208061,-0.020554594695568085,0.011050974018871784
1744926477442510600,6.557510498046875,0.0005733060534112155,-0.011803712695837021,0.021262066438794136
1744926477452470500,6.567470458984375,-0.0013391203247010708,-0.0007977630011737347,0.021862763911485672
1744926477462429400,6.577429443359375,0.010095960460603237,0.00005870964378118515,0.011973381042480469
1744926477472388600,6.587388671875,0.007951878942549229,0.013937652111053467,0.00591887254267931
1744926477482348800,6.597348876953125,0.001145903836004436,0.029737388715147972,0.0009155920706689358
1744926477492307700,6.6073076171875,0.009961700066924095,0.010856859385967255,0.008054446429014206
1744926477502266600,6.6172666015625,0.017230531200766563,0.0015842653810977936,0.016643675044178963
1744926477512226600,6.6272265625,0.008785173296928406,-0.0036586755886673927,0.013256775215268135
1744926477522185500,6.637185546875,-0.005705619230866432,-0.006098397541791201,0.006085415370762348
1744926477532145400,6.6471455078125,-0.012494521215558052,-0.008298822678625584,0.003258924465626478
1744926477542104800,6.657104736328125,-0.014435166493058205,-0.010422427207231522,0.003971586469560862
1744926477552063700,6.667063720703125,-0.009197945706546307,-0.00659222062677145,-0.0047654928639531136
1744926477562023700,6.677023681640625,0.0033846914302557707,-0.009111837483942509,-0.014562730677425861
1744926477571982600,6.686982666015625,0.0044193388894200325,-0.006164226680994034,-0.01614687219262123
1744926477581941500,6.69694140625,-0.00019858259474858642,0.000316043384373188,-0.015875495970249176
1744926477591901400,6.7069013671875,0.002633175812661648,-0.008145498111844063,-0.015959369018673897
1744926477601860600,6.716860595703125,-0.0022856828290969133,-0.013943465426564217,-0.009091876447200775
1744926477611819500,6.726819580078125,-0.01060490496456623,-0.011942803859710693,-0.006913503631949425
1744926477621779700,6.73677978515625,-0.014475543051958084,-0.010723075829446316,-0.015691282227635384
1744926477631738600,6.746738525390625,-0.018022587522864342,-0.004687237553298473,-0.021722199395298958
1744926477641698600,6.756698486328125,-0.007191510871052742,-0.0035268981009721756,-0.02316909469664097
1744926477651657500,6.766657470703125,0.01025722548365593,-0.00013976823538541794,-0.025286497548222542
1744926477661616600,6.77661669921875,0.012806137092411518,-0.002424227772280574,-0.019470153376460075
1744926477671576600,6.78657666015625,0.008851000107824802,0.0071907746605575085,-0.014863870106637478
1744926477681535700,6.79653564453125,-0.0006903071771375835,0.009075228124856949,-0.0065047405660152435
1744926477691494700,6.80649462890625,0.00034280034014955163,0.0002570180222392082,0.0017806349787861109
1744926477701454600,6.81645458984375,-0.00010034971637651324,-0.007685593795031309,0.007525339722633362
1744926477711413500,6.82641357421875,-0.0006093368283472955,-0.005290637258440256,0.011046460829675198
1744926477721372700,6.83637255859375,-0.005281320307403803,-0.003999270498752594,0.00784028135240078
1744926477731332600,6.84633251953125,0.00030620081815868616,-0.0069122593849897385,0.0025463406927883625
1744926477741291500,6.85629150390625,-0.002966291503980756,-0.003157202620059252,-0.0027387025766074657
1744926477751250400,6.86625048828125,-0.008977511897683144,0.0029140538536012173,-0.0031669242307543755
1744926477761210600,6.876210693359375,-0.005390767473727465,0.0008812630549073219,-0.007595228496938944
1744926477771169500,6.88616943359375,0.0017321142368018627,0.005731653887778521,-0.013837317004799843
1744926477781129500,6.89612939453125,0.006237383931875229,0.01648763008415699,-0.019617972895503044
1744926477791088600,6.906088623046875,0.019304897636175156,0.012542253360152245,-0.023560548201203346
1744926477801047600,6.916047607421875,0.03270113095641136,-0.006635436788201332,-0.021557051688432693
1744926477811007500,6.926007568359375,0.016826940700411797,-0.007428211160004139,-0.016887778416275978
1744926477820966700,6.935966552734375,-0.01906634494662285,0.001374867744743824,-0.015736227855086327
1744926477830925800,6.94592578125,-0.030401786789298058,-0.002525427844375372,-0.017103668302297592
1744926477840885800,6.9558857421875,-0.02157553844153881,-0.016943514347076416,-0.01209532842040062
1744926477850844700,6.9658447265625,-0.015693746507167816,-0.017668476328253746,-0.003238734556362033
1744926477860803600,6.975803466796875,-0.009302160702645779,-0.0038306922651827335,-0.00232553668320179
1744926477870763500,6.985763427734375,0.006734034977853298,0.00524947652593255,-0.008706126362085342
1744926477880722400,6.995722412109375,0.02194281481206417,0.010241838172078133,-0.011528544127941132
1744926477890681600,7.005681640625,0.02505604922771454,0.01413644477725029,-0.016260448843240738
1744926477900641800,7.015641845703125,0.024001171812415123,0.0044321524910628796,-0.01807193085551262
1744926477910600700,7.0256005859375,0.010100564919412136,-0.0005640587769448757,-0.013026917353272438
1744926477920561000,7.035560791015625,-0.017838923260569572,0.0015006898902356625,-0.010015946812927723
1744926477930519800,7.045519775390625,-0.02921321801841259,0.002503685187548399,-0.009025502018630505
1744926477940478700,7.055478759765625,-0.017519544810056686,-0.002282547764480114,-0.004226486198604107
1744926477950438700,7.065438720703125,-0.004991760943084955,-0.0030236823949962854,0.010405891574919224
1744926477960397800,7.075397705078125,0.008419385179877281,0.00007943296805024147,0.012769446708261967
1744926477970356700,7.085356689453125,0.01980128139257431,0.0012492397800087929,0.011802312918007374
1744926477980317000,7.09531689453125,0.021287325769662857,0.0017501800321042538,0.007720219902694225
1744926477990275800,7.10527587890625,0.006625310983508825,0.009997044689953327,0.006220877170562744
1744926478000234800,7.11523486328125,-0.0017772284336388111,0.005008411593735218,0.00651169428601861
1744926478010194700,7.125194580078125,-0.0016334366519004107,0.0001568109728395939,0.003644784679636359
1744926478020153900,7.13515380859375,-0.007293186150491238,-0.007983140647411346,0.004220293834805489
1744926478030112800,7.14511279296875,-0.012781115248799324,-0.0050233048386871815,0.004554991610348225
1744926478040072700,7.15507275390625,-0.009529662318527699,-0.00779618788510561,0.00766822649165988
1744926478050031600,7.165031494140625,-0.008046099916100502,-0.0037400969304144382,0.005021811928600073
1744926478059991800,7.17499169921875,-0.0032880965154618025,0.002865341491997242,-0.005073965061455965
1744926478069950700,7.18495068359375,0.005582417361438274,0.006210828199982643,-0.014474015682935715
1744926478079910000,7.194909912109375,0.021277491003274918,0.008076638914644718,-0.013553893193602562
1744926478089869800,7.204869873046875,0.017901524901390076,0.01076730340719223,-0.017636394128203392
1744926478099828700,7.214828857421875,0.009743197821080685,0.015139948576688766,-0.021628471091389656
1744926478109787600,7.22478759765625,0.00006739055970683694,0.01967714913189411,-0.02256447821855545
1744926478119747800,7.234747802734375,-0.0014191858936101198,0.01809762977063656,-0.022453956305980682
1744926478129706800,7.244706787109375,-0.001655160216614604,0.010340254753828049,-0.017715677618980408
1744926478139666000,7.254666015625,0.002851707162335515,0.008635299280285835,-0.011432216502726078
1744926478149625900,7.2646259765625,0.008872400969266891,0.013090670108795166,-0.013135542161762714
1744926478159584800,7.274584716796875,0.013425607234239578,0.0226128026843071,-0.011431385762989521
1744926478169543700,7.284543701171875,0.02324848622083664,0.022411271929740906,-0.00927510391920805
1744926478179503600,7.294503662109375,0.031048886477947235,0.018364332616329193,-0.0031237341463565826
1744926478189462800,7.304462890625,0.028602058067917824,0.012788644060492516,0.004994677379727364
1744926478199422700,7.314422607421875,0.006670127622783184,0.01473940908908844,0.009394751861691475
1744926478209382000,7.3243818359375,-0.0059615871869027615,0.01453240867704153,0.008746884763240814
1744926478219340800,7.3343408203125,-0.008083859458565712,0.011547003872692585,-0.0009398304973728955
1744926478229300700,7.34430078125,-0.0031696250662207603,0.0038710469380021095,-0.005454091355204582
1744926478239259600,7.354259765625,0.005377790424972773,0.0004534125328063965,-0.0056911129504442215
1744926478249218800,7.36421875,0.014694850891828537,0.0013007353991270065,-0.01714601181447506
1744926478259178800,7.3741787109375,0.005477916449308395,0.011585863307118416,-0.025377044454216957
1744926478269138000,7.384137939453125,-0.00002740760101005435,0.01563689485192299,-0.031208127737045288
1744926478279096800,7.394096923828125,0.0032386931125074625,0.00926128588616848,-0.02785121463239193
1744926478289056800,7.404056884765625,0.004792533349245787,0.00944473035633564,-0.019404152408242226
1744926478299015700,7.414015625,-0.0034363679587841034,0.015588909387588501,-0.008558164350688457
1744926478308975600,7.4239755859375,0.002506704069674015,0.020743554458022118,-0.007056500297039747
1744926478318934800,7.433934814453125,0.014587068930268288,0.017242029309272766,0.0004549451405182481
1744926478328893700,7.443893798828125,0.027113189920783043,0.01220969669520855,0.008143114857375622
1744926478338854000,7.45385400390625,0.03334898129105568,0.012437397614121437,0.010670454241335392
1744926478348812800,7.463812744140625,0.025890551507472992,0.011288558132946491,0.015194709412753582
1744926478358771700,7.473771728515625,0.009283343330025673,0.013773552142083645,0.004738073330372572
1744926478368731600,7.483731689453125,-0.004205689765512943,0.0039022075943648815,-0.00113778340164572
1744926478378690800,7.49369091796875,-0.012083852663636208,0.0014459742233157158,0.0012436152901500463
1744926478388649700,7.503649658203125,-0.01713939756155014,-0.006127571687102318,-0.003913611173629761
1744926478398610000,7.51360986328125,-0.011206407099962234,-0.010340159758925438,-0.015014998614788055
1744926478408568800,7.52356884765625,-0.009751960635185242,-0.004934547934681177,-0.02090277709066868
1744926478418527700,7.53352783203125,-0.008526107296347618,0.0003893771208822727,-0.017323222011327744
1744926478428487700,7.54348779296875,-0.0013907367829233408,0.0028182766400277615,-0.014185580424964428
1744926478438446800,7.55344677734375,0.004142513033002615,0.0017625996842980385,-0.005573182832449675
1744926478448406800,7.56340673828125,0.006752201355993748,0.00039082951843738556,0.002965819789096713
1744926478458365700,7.57336572265625,0.006484820041805506,-0.009639168158173561,0.013911678455770016
1744926478468324600,7.58332470703125,-0.0011674693087115884,-0.011582039296627045,0.026625968515872955
1744926478478284800,7.593284912109375,-0.016475852578878403,-0.017849788069725037,0.0199198629707098
1744926478488243700,7.60324365234375,-0.018689092248678207,-0.029161252081394196,0.018306206911802292
1744926478498203000,7.613202880859375,-0.030097272247076035,-0.04050605371594429,0.03678188845515251
1744926478508162800,7.623162841796875,-0.03503445163369179,-0.03344625607132912,0.033595792949199677
1744926478518121700,7.633121826171875,-0.02499992586672306,-0.02925124205648899,0.019497549161314964
1744926478528080600,7.64308056640625,-0.014276442117989063,-0.023915598168969154,0.013759767636656761
1744926478538040800,7.653040771484375,-0.00003438885323703289,-0.00927140936255455,0.00751279154792428
1744926478547999700,7.662999755859375,0.010608667507767677,0.008620772510766983,-0.0015078678261488676
1744926478557959000,7.672958984375,0.023110877722501755,0.0116096381098032,-0.005301274359226227
1744926478567918800,7.6829189453125,0.02872551418840885,0.011911883018910885,-0.01640217751264572
1744926478577877800,7.692877685546875,0.022862564772367477,0.0190155990421772,-0.020764967426657677
1744926478587837700,7.702837646484375,0.0095901507884264,0.018779326230287552,-0.010336904786527157
1744926478597796600,7.712796630859375,0.00574561208486557,0.006883518770337105,-0.006526187062263489
1744926478607755800,7.722755859375,0.002892567776143551,-0.00033524539321660995,-0.005695813335478306
1744926478617715700,7.7327158203125,-0.00980804767459631,-0.0008553608786314726,0.0033400258980691433
1744926478627675000,7.7426748046875,-0.014587623067200184,-0.006923905573785305,0.01193537749350071
1744926478637633800,7.7526337890625,-0.009201645851135254,-0.0171003770083189,0.022064445540308952
1744926478647593700,7.76259375,-0.007729383651167154,-0.016698457300662994,0.023208288475871086
1744926478657552600,7.772552734375,-0.010502533055841923,-0.014602016657590866,0.018090758472681046
1744926478667511800,7.78251171875,-0.01054328866302967,-0.010627273470163345,0.012472380883991718
1744926478677472000,7.792471923828125,-0.008913966827094555,-0.011237936094403267,0.008808137848973274
1744926478687431000,7.802430908203125,-0.0036183479242026806,-0.009079322218894958,0.0056550949811935425
1744926478697389800,7.812389892578125,-0.00527004012838006,-0.005515480414032936,-0.0035703612957149744
1744926478707349800,7.822349853515625,-0.0033784632105380297,0.0042159282602369785,-0.009714554995298386
1744926478717308700,7.83230859375,0.0014056393411010504,0.0076213120482862,-0.009353164583444595
1744926478727268600,7.8422685546875,0.009918337687849998,0.006850399076938629,-0.004655817523598671
1744926478737227800,7.852227783203125,0.013362604193389416,0.003097738139331341,0.0006340194959193468
1744926478747186700,7.862186767578125,0.014144194312393665,-0.003347909078001976,0.002268462907522917
1744926478757147000,7.87214697265625,0.0005940313567407429,-0.009803411550819874,0.0052900854498147964
1744926478767105800,7.882105712890625,-0.01833019219338894,-0.014830177649855614,0.010111989453434944
1744926478777064700,7.892064697265625,-0.0341365821659565,-0.016571352258324623,0.01216874923557043
1744926478787024600,7.902024658203125,-0.030331840738654137,-0.02719980850815773,0.0023257527500391006
1744926478796983800,7.91198388671875,-0.02547210454940796,-0.02353343553841114,-0.00479181157425046
1744926478806942700,7.921942626953125,-0.023723330348730087,0.00005677202716469765,-0.007385589182376862
1744926478816903000,7.93190283203125,-0.001100043416954577,0.014751295559108257,-0.0044633024372160435
1744926478826861800,7.94186181640625,0.030342215672135353,0.01575886644423008,-0.005585856735706329
1744926478836821800,7.95182177734375,0.04468093812465668,0.02190863899886608,-0.004347220063209534
1744926478846780700,7.96178076171875,0.040529973804950714,0.032150041311979294,-0.0029470885638147593
1744926478856739800,7.97173974609375,0.02528897114098072,0.024169880896806717,0.0009312728652730584
1744926478866699800,7.98169970703125,0.0035153385251760483,0.01793757453560829,0.013324873521924019
1744926478876658700,7.99165869140625,-0.016173677518963814,0.011323081329464912,0.015725981444120407
1744926478886617600,8.00161767578125,-0.015925699844956398,-0.009410522878170013,0.014213929884135723
1744926478896577800,8.011577880859376,-0.01575419306755066,-0.025653675198554993,0.01485734898597002
1744926478906536400,8.021536376953126,-0.02616594359278679,-0.013966997154057026,0.01427718810737133
1744926478916495400,8.031495361328124,-0.022037778049707413,-0.0018283093813806772,0.009029163047671318
1744926478926455300,8.041455322265625,0.002425573067739606,-0.0026081802789121866,-0.00413321191444993
1744926478936414500,8.05141455078125,0.023397432640194893,-0.005333925597369671,-0.011692594736814499
1744926478946373400,8.061373291015625,0.02914593368768692,-0.004969822242856026,-0.017762722447514534
1744926478956333300,8.071333251953124,0.009675029665231705,-0.0012720231898128986,-0.02092043310403824
1744926478966292500,8.08129248046875,-0.018344830721616745,-0.002421419834718108,-0.026993395760655403
1744926478976252400,8.09125244140625,-0.028444070369005203,-0.010962709784507751,-0.03246059641242027
1744926478986211300,8.10121142578125,-0.02843516506254673,-0.028688661754131317,-0.025557732209563255
1744926478996170200,8.111170166015626,-0.02880028448998928,-0.032049570232629776,-0.011266677640378475
1744926479006130400,8.12113037109375,-0.03163252770900726,-0.021866295486688614,-0.005733238998800516
1744926479016089300,8.13108935546875,-0.020465895533561707,-0.0180641021579504,-0.007914634421467781
1744926479026048500,8.141048583984375,-0.005251883063465357,-0.023136019706726074,0.0033402140252292156
1744926479036008400,8.151008544921876,-0.0018917727284133434,-0.017861362546682358,0.013934534974396229
1744926479045967400,8.16096728515625,-0.003800602862611413,-0.002401107456535101,0.021250363439321518
1744926479055926300,8.17092626953125,-0.00010386883514001966,-0.0003603268414735794,0.019266309216618538
1744926479065886200,8.18088623046875,0.002983704674988985,-0.0037411379162222147,0.006879742722958326
1744926479075845400,8.190845458984375,0.002512857783585787,-0.0013389666564762592,0.005289037246257067
1744926479085804500,8.200804443359376,-0.003969704732298851,0.0018418650142848492,0.012015490792691708
1744926479095764500,8.210764404296874,0.0005430217133834958,-0.0033417115919291973,0.009871645830571651
1744926479105723400,8.220723388671875,0.0025158256758004427,-0.0058752247132360935,-0.005498003680258989
1744926479115683300,8.230683349609375,-0.0025391203816980124,-0.0005441089160740376,-0.01241343468427658
1744926479125642200,8.240642333984376,-0.0037670182064175606,0.0032531949691474438,-0.008403480984270573
1744926479135601400,8.250601318359376,-0.0008998591802082956,-0.001039021648466587,-0.005455894395709038
1744926479145561300,8.260561279296875,0.0005870406166650355,-0.00499911792576313,-0.005743938498198986
1744926479155520500,8.2705205078125,-0.0031549669802188873,0.0012707621790468693,-0.014358465559780598
1744926479165479400,8.2804794921875,-0.0077301254495978355,0.006778663489967585,-0.011632673442363739
1744926479175439400,8.290439453125,-0.0015689022839069366,0.0011143861338496208,-0.00006177130853757262
1744926479185398300,8.300398193359374,0.004557813983410597,-0.00537329213693738,0.004246377851814032
1744926479195357400,8.310357421875,0.00814642384648323,-0.003693103790283203,0.0021171802654862404
1744926479205317400,8.3203173828125,-0.0017053991323336959,0.00690390495583415,0.0003631275612860918
1744926479215276500,8.330276611328125,-0.0001373299164697528,0.01010768674314022,-0.0030031080823391676
1744926479225235500,8.3402353515625,0.011314395815134048,0.011264733038842678,-0.002133615780621767
1744926479235195400,8.3501953125,0.014913924038410187,0.012011484242975712,-0.005590132437646389
1744926479245154300,8.360154296875,0.01712668687105179,0.02520981803536415,-0.010028933174908161
1744926479255114200,8.3701142578125,0.022059926763176918,0.027952343225479126,-0.014371749944984913
1744926479265073400,8.380073486328126,0.026880638673901558,0.016918940469622612,-0.012249885126948357
1744926479275032300,8.3900322265625,0.018507661297917366,0.009030390530824661,-0.0049783894792199135
1744926479284992500,8.399992431640625,0.0006872705416753888,0.007864942774176598,-0.005538139492273331
1744926479294951400,8.409951416015625,-0.01181067805737257,0.004791388753801584,-0.00987163558602333
1744926479304910300,8.419910400390625,-0.007797855418175459,-0.002467201557010412,-0.007523713633418083
1744926479314870300,8.429870361328126,-0.004716045223176479,-0.007483265362679958,-0.0023499908857047558
1744926479324829400,8.439829345703124,-0.003971454221755266,-0.002631397685036063,0.0031766791362315416
1744926479334788400,8.449788330078125,0.0016057374887168407,0.00027544284239411354,0.001362800132483244
1744926479344748300,8.459748291015625,0.01359480433166027,-0.0014822448138147593,-0.0045540062710642815
1744926479354707500,8.46970751953125,0.014871257357299328,-0.002066808519884944,-0.0053662704303860664
1744926479364667400,8.47966748046875,0.006060369312763214,0.0020622536540031433,-0.007880859076976776
1744926479374626300,8.489626220703125,-0.006098825018852949,0.0027868999168276787,-0.011017530225217342
1744926479384585500,8.49958544921875,-0.007684851530939341,-0.004203413613140583,-0.01633554883301258
1744926479394545400,8.50954541015625,-0.01151794008910656,-0.012333512306213379,-0.016893481835722923
1744926479404504300,8.51950439453125,-0.023483198136091232,-0.00819040834903717,-0.012384907342493534
1744926479414463200,8.529463134765624,-0.022289037704467773,0.0017959135584533215,-0.006725689396262169
1744926479424423400,8.53942333984375,-0.005529527086764574,-0.003267167368903756,0.006139054894447327
1744926479434382300,8.54938232421875,0.006441115867346525,0.0006620604544878006,0.010177738033235073
1744926479444341500,8.559341552734375,0.01008676365017891,0.017109476029872894,0.026800064370036125
1744926479454301400,8.569301513671874,0.01645837537944317,0.02298627234995365,0.03488994762301445
1744926479464260400,8.57926025390625,0.027311472222208977,0.014229896478354931,0.04234037548303604
1744926479474219300,8.58921923828125,0.017844732850790024,0.016857638955116272,0.04382455721497536
1744926479484179200,8.59917919921875,0.00633009010925889,0.022366968914866447,0.03640660271048546
1744926479494138400,8.609138427734376,0.0011712810955941677,0.014303715899586678,0.02798835001885891
1744926479504097500,8.61909765625,0.0048218281008303165,0.006819119211286306,0.023701239377260208
1744926479514057500,8.629057373046875,0.001642546383664012,0.014519650489091873,0.018873460590839386
1744926479524016400,8.639016357421875,0.001323518343269825,0.017656706273555756,0.005182965192943811
1744926479533976300,8.648976318359376,0.007531613111495972,0.006808853708207607,0.005842363461852074
1744926479543935200,8.658935302734376,0.005344081670045853,0.0012374944053590298,0.00386080052703619
1744926479553894400,8.668894287109374,-0.003817192744463682,0.0050729792565107346,0.004405683372169733
1744926479563854300,8.678854248046875,-0.00960280280560255,0.0042396304197609425,-0.0001655248343013227
1744926479573813500,8.6888134765625,-0.001269772183150053,-0.00223771040327847,-0.003067837795242667
1744926479583772400,8.6987724609375,0.0046741655096411705,-0.004524687770754099,-0.0020247558131814003
1744926479593732400,8.708732421875,0.005851549096405506,-0.013074234127998352,0.005725841969251633
1744926479603691300,8.718691162109375,-0.002114641247317195,-0.024502849206328392,0.008526546880602837
1744926479613650400,8.728650390625,-0.01989603415131569,-0.02142530120909214,0.004616493359208107
1744926479623610400,8.7386103515625,-0.02790842205286026,-0.021031418815255165,0.0038681456353515387
1744926479633569500,8.748569580078126,-0.02526283636689186,-0.03008643351495266,0.0035677410196512938
1744926479643529500,8.758529541015625,-0.019571511074900627,-0.02310287393629551,0.006185675039887428
1744926479653488400,8.76848828125,-0.017913958057761192,-0.0074115293100476265,0.002650062320753932
1744926479663447300,8.778447265625,-0.003962447866797447,0.00032797735184431076,-0.0010689306072890759
1744926479673407200,8.7884072265625,0.01943608559668064,-0.006174130365252495,-0.001089969533495605
1744926479683366400,8.798366455078124,0.028015287593007088,-0.0030479170382022858,0.007834752090275288
1744926479693325300,8.8083251953125,0.017484882846474648,0.0005414914339780807,0.013366936706006527
1744926479703285500,8.818285400390625,0.007088224869221449,-0.007432787679135799,0.00885005947202444
1744926479713244400,8.828244384765625,-0.01560590136796236,0.0032856371253728867,0.004541597794741392
1744926479723203300,8.838203369140626,-0.023841727524995804,0.010396010242402554,0.007001559715718031
1744926479733163300,8.848163330078124,-0.01840727962553501,0.009619965218007565,0.010657812468707561
1744926479743122400,8.858122314453125,-0.0037973409052938223,0.013143813237547874,0.011692559346556664
1744926479753081300,8.868081298828125,0.01495637372136116,0.012772833928465843,0.012791645713150501
1744926479763041300,8.878041259765626,0.029651125892996788,0.006209304090589285,0.02274937927722931
1744926479773000400,8.88800048828125,0.02147974818944931,0.007762459572404623,0.03063127025961876
1744926479782960400,8.89796044921875,0.014653115533292294,0.012536490336060524,0.024938717484474182
1744926479792919300,8.907919189453125,0.0044769104570150375,0.011571627110242844,0.009814091958105564
1744926479802878500,8.91787841796875,0.00039851729525253177,0.008086735382676125,0.004073460586369038
1744926479812838400,8.92783837890625,-0.0003186719841323793,0.009611661545932293,-0.0006951958639547229
1744926479822797300,8.93779736328125,-0.0033462014980614185,0.013208260759711266,-0.008591939695179462
1744926479832756200,8.947756103515625,0.004452333319932222,0.007411891594529152,-0.016625365242362022
1744926479842716400,8.95771630859375,0.009481798857450485,0.0007344507612287998,-0.010142933577299118
1744926479852675300,8.96767529296875,0.013139383867383003,-0.009433764964342117,-0.004488509148359299
1744926479862634500,8.977634521484376,0.005803022533655167,-0.018368355929851532,0.006814432330429554
1744926479872594400,8.987594482421875,-0.014544326812028885,-0.018041053786873817,0.00531480647623539
1744926479882553300,8.99755322265625,-0.02550607919692993,-0.008379202336072922,-0.009340804070234299
1744926479892513300,9.00751318359375,-0.014947177842259407,-0.01451006531715393,-0.02094872295856476
1744926479902472200,9.01747216796875,-0.001593280117958784,-0.025609295815229416,-0.013264001347124577
1744926479912432400,9.027432373046874,-0.00122975860722363,-0.014601653441786766,-0.005137365311384201
1744926479922392300,9.037392333984375,-0.005048275459557772,-0.0038177892565727234,-0.005558863747864962
1744926479932351200,9.047351318359375,-0.008786555379629135,0.0008504660800099373,-0.00765397259965539
1744926479942310400,9.057310302734376,-0.00281795347109437,0.0021392921917140484,0.0004701401339843869
1744926479952270300,9.067270263671874,0.011688019149005413,-0.00337185338139534,0.016192911192774773
1744926479962229200,9.077229248046875,0.02230232022702694,-0.01335815154016018,0.019830161705613136
1744926479972188400,9.0871884765625,0.011430765502154827,-0.007138071581721306,0.006216614507138729
1744926479982148400,9.0971484375,-0.0075758714228868484,-0.0009796330705285072,0.004309916868805885
1744926479992107300,9.107107177734376,-0.02286294847726822,0.0007045501843094826,0.009296952746808529
1744926480002066400,9.11706640625,-0.027303798124194145,-0.003948137629777193,0.018397852778434753
1744926480012026400,9.1270263671875,-0.012337631545960903,-0.00750745227560401,0.017199695110321045
1744926480021985300,9.1369853515625,0.007155403960496187,-0.007929418236017227,0.015309837646782398
1744926480031945500,9.146945556640626,0.021192394196987152,-0.010703632608056068,0.010543045587837696
1744926480041904400,9.156904296875,0.021651845425367355,-0.008974684402346611,0.004502573981881142
1744926480051863600,9.166863525390625,0.013462891802191734,-0.01161414384841919,-0.005235540680587292
1744926480061823500,9.176823486328125,-0.0034168697893619537,-0.01155000925064087,-0.014421536587178707
1744926480071782400,9.186782470703125,-0.02589767798781395,-0.011265850625932217,-0.02065439708530903
1744926480081741300,9.1967412109375,-0.030149415135383606,-0.008163800463080406,-0.015825821086764336
1744926480091701200,9.206701171875,-0.01139756478369236,-0.021345116198062897,-0.013464395888149738
1744926480101660200,9.21666015625,0.012787390500307083,-0.027594249695539474,-0.013171353377401829
1744926480111619600,9.22661962890625,0.0004545574192889035,-0.004528876859694719,-0.005539265926927328
1744926480121579500,9.23657958984375,-0.01742621883749962,0.015542304143309593,-0.007719001732766628
1744926480131538400,9.246538330078126,-0.011472722515463829,0.0012238179333508015,-0.006273171864449978
1744926480141497300,9.256497314453124,0.0006933958502486348,-0.016022013500332832,0.0003506423672661185
1744926480151457300,9.266457275390625,-0.0016800514422357082,-0.006505910307168961,0.016400622203946114
1744926480161416200,9.276416259765625,-0.00801345705986023,-0.002415488474071026,0.018811706453561783
1744926480171376400,9.28637646484375,0.0024642173666507006,-0.006722618825733662,0.0058173444122076035
1744926480181335600,9.29633544921875,0.0115829948335886,-0.01192532293498516,0.0011181504232808948
1744926480191294500,9.30629443359375,0.0048369416035711765,-0.014054520055651665,0.011887706816196442
1744926480201254400,9.31625439453125,0.0003697266220115125,-0.002692554146051407,0.014283564873039722
1744926480211213300,9.32621337890625,0.002021951600909233,-0.0031673957128077745,0.01541514229029417
1744926480221172200,9.336172119140626,-0.014345303177833557,0.01866147108376026,0.009233678691089153
1744926480231132200,9.346132080078124,-0.008237076923251152,0.02719423733651638,-0.0007270755595527589
1744926480241091300,9.35609130859375,0.02045908197760582,0.0013930504210293293,-0.0058525800704956055
1744926480251050500,9.366050537109375,0.03458395600318909,-0.022895777598023415,-0.002234676154330373
1744926480261010400,9.376010498046876,-0.013895638287067413,-0.0029289694502949715,-0.0018779688980430365
1744926480270969300,9.38596923828125,-0.060372594743967056,0.0353984460234642,-0.014372988604009151
1744926480280928300,9.39592822265625,-0.04744308069348335,0.03839040547609329,-0.03601279854774475
1744926480290888200,9.40588818359375,0.009732058271765709,0.010738806799054146,-0.05315396934747696
1744926480300847400,9.415847412109375,0.04575096070766449,0.01906021684408188,-0.050690311938524246
1744926480310807600,9.4258076171875,0.03876282274723053,0.04847376421093941,-0.048932358622550964
1744926480320766500,9.435766357421874,0.021269215270876884,0.10110393166542053,-0.04830043762922287
1744926480330725400,9.445725341796875,0.04956716671586037,0.07939836382865906,-0.07316504418849945
1744926480340685300,9.455685302734375,0.08820861577987671,0.034570708870887756,-0.06558414548635483
1744926480350644200,9.465644287109376,0.044850755482912064,0.0409601666033268,-0.018354052677750587
1744926480360603400,9.475603271484376,-0.009859265759587288,0.05891299247741699,0.009312665089964867
1744926480370563300,9.485563232421875,-0.010676856152713299,0.043164391070604324,-0.006654316559433937
1744926480380522200,9.495522216796875,0.018984993919730186,0.007900339551270008,-0.009890387766063213
1744926480390481400,9.5054814453125,0.02098449505865574,0.037036918103694916,0.017562011256814003
1744926480400441300,9.51544140625,0.03605484962463379,0.011236239224672318,0.040960654616355896
1744926480410400500,9.525400390625,0.08192699402570724,-0.0035000969655811787,0.04411197081208229
1744926480420360400,9.5353603515625,0.011030009016394615,-0.0778585821390152,0.015018832869827747
1744926480430319400,9.5453193359375,-0.068151094019413,0.022459501400589943,-0.0268830768764019
1744926480440278300,9.5552783203125,-0.08782386779785156,-0.04060894623398781,-0.021361012011766434
1744926480450238500,9.565238525390624,-0.050349727272987366,-0.13608673214912415,0.0146790137514472
1744926480460197400,9.575197265625,-0.04950714111328125,-0.09899865835905075,-0.0008627552888356149
1744926480470156500,9.585156494140625,-0.10555550456047058,-0.062015339732170105,-0.03354853019118309
1744926480480116500,9.595116455078125,-0.09014410525560379,-0.01053353026509285,-0.03936817869544029
1744926480490075400,9.605075439453126,-0.008334729820489883,-0.05625574290752411,-0.025142371654510498
1744926480500034300,9.615034423828124,0.03247404098510742,-0.026708336547017097,0.017019495368003845
1744926480509994200,9.624994140625,0.014562681317329407,0.05553194135427475,0.024100041016936302
1744926480519953200,9.634953125,0.03671511262655258,0.09070394933223724,-0.007863330654799938
1744926480529912600,9.64491259765625,0.09496323764324188,0.0764581710100174,-0.014950535260140896
1744926480539872500,9.65487255859375,0.1040305569767952,0.054716650396585464,0.019608180969953537
1744926480549831400,9.66483154296875,0.061471372842788696,0.09063470363616943,0.04484376311302185
1744926480559791400,9.674791259765625,0.03926609456539154,0.07401575148105621,0.024785583838820457
1744926480569750300,9.684750244140625,0.03669055178761482,0.01130763627588749,-0.011337533593177795
1744926480579709200,9.694709228515626,0.010584241710603237,-0.015343006700277328,-0.012578502297401428
1744926480589669400,9.70466943359375,-0.04652778059244156,-0.029301699250936508,0.007584557402879
1744926480599628500,9.714628662109375,-0.07282396405935287,-0.050214074552059174,0.010155336000025272
1744926480609587500,9.72458740234375,-0.060547854751348495,-0.09671925753355026,-0.015924999490380287
1744926480619547400,9.73454736328125,-0.06823722273111343,-0.08997971564531326,-0.03626997023820877
1744926480629506300,9.74450634765625,-0.08841599524021149,-0.05342117324471474,-0.023163488134741783
1744926480639465200,9.75446533203125,-0.06597254425287247,-0.046975065022706985,0.0039957743138074875
1744926480649425200,9.764425048828125,-0.00945494044572115,-0.04094380512833595,0.009436612017452717
1744926480659384300,9.77438427734375,0.020328102633357048,-0.004347660578787327,-0.002733547706156969
1744926480669344500,9.784344482421876,0.019291333854198456,0.060604970902204514,-0.004841972142457962
1744926480679303400,9.794303466796874,0.046835847198963165,0.07902644574642181,0.0053148698061704636
1744926480689262300,9.804262451171875,0.09473653137683868,0.060855165123939514,0.02509123831987381
1744926480699222300,9.81422216796875,0.09038013219833374,0.06228983402252197,0.024228544905781746
1744926480709181200,9.82418115234375,0.05543147772550583,0.08366702497005463,0.004785338416695595
1744926480719140400,9.834140380859376,0.03715468570590019,0.06954888254404068,-0.0051828715950250626
1744926480729100500,9.8441005859375,0.03501962870359421,0.009604323655366898,0.0011634408729150891
1744926480739059500,9.8540595703125,0.008816322311758995,-0.026087842881679535,0.008441075682640076
1744926480749018400,9.864018310546875,-0.043480705469846725,-0.026942450553178787,-0.0026390054263174534
1744926480758978300,9.873978271484376,-0.07386063784360886,-0.04568863660097122,-0.02302691526710987
1744926480768937500,9.8839375,-0.06695319712162018,-0.0825720801949501,-0.027216333895921707
1744926480778896400,9.893896484375,-0.06168386712670326,-0.09305508434772491,-0.0052399286068975925
1744926480788856300,9.903856201171875,-0.07159562408924103,-0.06467936933040619,0.004383936524391174
1744926480798815200,9.913815185546875,-0.056339558213949203,-0.036318108439445496,-0.0037990170530974865
1744926480808775400,9.923775390625,-0.01709841378033161,-0.024754131212830544,-0.009200707077980042
1744926480818734300,9.933734375,0.01850096322596073,0.004124943632632494,0.00334948836825788
1744926480828693500,9.943693603515625,0.03129718452692032,0.04014313220977783,0.022029699757695198
1744926480838653400,9.9536533203125,0.05061408504843712,0.06336894631385803,0.025367312133312225
1744926480848612400,9.9636123046875,0.07747498899698257,0.06824546307325363,0.009007247164845467
1744926480858571300,9.9735712890625,0.07818137854337692,0.07362642884254456,0.0034057742450386286
1744926480868531500,9.983531494140625,0.056108031421899796,0.07200749218463898,0.007671358995139599
1744926480878490400,9.993490478515625,0.04019816592335701,0.05001837760210037,0.012338673695921898
1744926480888449500,10.003449462890625,0.026013104245066643,0.01287020929157734,0.0023361071944236755
1744926480898409500,10.013409423828126,-0.00585155189037323,-0.011780228465795517,-0.018405640497803688
1744926480908368400,10.023368408203124,-0.04329985752701759,-0.02929903380572796,-0.023815585300326347
1744926480918327300,10.033327392578125,-0.06156172230839729,-0.05163407325744629,-0.014766791835427284
1744926480928287200,10.043287353515625,-0.06284696608781815,-0.08099436014890671,-0.005557048134505749
1744926480938246100,10.05324609375,-0.060666196048259735,-0.0834427922964096,-0.006814795546233654
1744926480948206000,10.0632060546875,-0.06699227541685104,-0.05603167787194252,-0.010381833650171757
1744926480958165200,10.073165283203124,-0.047897253185510635,-0.03155114874243736,-0.005906344391405582
1744926480968124200,10.083124267578125,-0.00968595128506422,-0.023437028750777245,0.01041483785957098
1744926480978084400,10.09308447265625,0.019268697127699852,0.00011100340634584427,0.01905830018222332
1744926480988043300,10.103043212890626,0.032216187566518784,0.04243182763457298,0.014989522285759449
1744926480998002200,10.113002197265626,0.048602741211652756,0.06601845473051071,0.007530399598181248
1744926481007962000,10.122962158203125,0.06964437663555145,0.06649889051914215,0.009118708781898022
1744926481017921300,10.13292138671875,0.07491584122180939,0.06599795073270798,0.012909452430903912
1744926481027880200,10.142880126953125,0.05566437914967537,0.06232598423957825,0.009550940245389938
1744926481037840100,10.152840087890626,0.030882012099027634,0.049245309084653854,-0.003652057144790888
1744926481047799300,10.16279931640625,0.014899314381182194,0.016142217442393303,-0.019883224740624428
1744926481057759200,10.17275927734375,-0.007123666815459728,-0.014589983969926834,-0.019637227058410645
1744926481067718100,10.18271826171875,-0.03856628015637398,-0.03690434619784355,-0.012371857650578022
1744926481077677300,10.19267724609375,-0.05715186148881912,-0.05110521614551544,-0.013590222224593163
1744926481087637200,10.20263720703125,-0.06230587884783745,-0.06738485395908356,-0.016081608831882477
1744926481097596200,10.21259619140625,-0.062151964753866196,-0.06909046322107315,-0.013992908410727978
1744926481107555000,10.22255517578125,-0.05563787370920181,-0.05716881901025772,0.0018582262564450502
1744926481117515300,10.232515380859375,-0.03939765691757202,-0.04062662273645401,0.014370118267834187
1744926481127474400,10.242474365234376,-0.009272247552871704,-0.017491208389401436,0.01778801903128624
1744926481137433300,10.252433349609374,0.01493184082210064,0.009579094126820564,0.014987706206738949
1744926481147393300,10.262393310546875,0.032232798635959625,0.04008054360747337,0.01742876134812832
1744926481157352200,10.272352294921875,0.05080867558717728,0.05837108939886093,0.023463653400540352
1744926481167311000,10.28231103515625,0.06492689251899719,0.05890105664730072,0.019762659445405006
1744926481177271000,10.29227099609375,0.0630606934428215,0.0603439137339592,0.00894893892109394
1744926481187230500,10.30223046875,0.048404257744550705,0.06015695631504059,-0.006122954189777374
1744926481197190400,10.3121904296875,0.030075453221797943,0.0419568195939064,-0.010207741521298885
1744926481207149300,10.3221494140625,0.013870383612811565,0.01145110558718443,-0.016616372391581535
1744926481217108200,10.332108154296876,-0.008960544131696224,-0.01405861135572195,-0.018455784767866135
1744926481227068200,10.342068115234374,-0.036862216889858246,-0.03196943551301956,-0.02414855733513832
1744926481237027000,10.352027099609375,-0.05679762363433838,-0.04628419131040573,-0.027828985825181007
1744926481246986200,10.361986328125,-0.05849059298634529,-0.06602513790130615,-0.016920410096645355
1744926481256946400,10.371946533203126,-0.053062234073877335,-0.06390076130628586,-0.0032740747556090355
1744926481266905300,10.3819052734375,-0.04823978245258331,-0.049133267253637314,0.003954011015594006
1744926481276864300,10.3918642578125,-0.03340062126517296,-0.032280709594488144,0.012438823468983173
1744926481286824200,10.40182421875,-0.008088607341051102,-0.01227770559489727,0.01582743041217327
1744926481296783000,10.411783203125,0.016633126884698868,0.008718583732843399,0.027836831286549568
1744926481306742300,10.4217421875,0.036244913935661316,0.03363858163356781,0.03149308264255524
1744926481316702200,10.4317021484375,0.051267288625240326,0.05215299874544144,0.027737511321902275
1744926481326661400,10.441661376953125,0.05635419487953186,0.0604010708630085,0.013858712278306484
1744926481336621300,10.451621337890625,0.05636504665017128,0.05552637204527855,0.007776570972055197
1744926481346580200,10.461580322265625,0.046227723360061646,0.04974465072154999,-0.0030976482667028904
1744926481356539100,10.4715390625,0.026558995246887207,0.03245001286268234,-0.008189081214368343
1744926481366499000,10.4814990234375,0.009828485548496246,0.00907864235341549,-0.02142792008817196
1744926481376458200,10.491458251953125,-0.015873882919549942,-0.01083323173224926,-0.029020311310887337
1744926481386417200,10.501417236328125,-0.03634054213762283,-0.03218885511159897,-0.029689297080039978
1744926481396377300,10.51137744140625,-0.050709255039691925,-0.0448223315179348,-0.021781258285045624
1744926481406336300,10.521336181640624,-0.05598098039627075,-0.056957293301820755,-0.013894841074943542
1744926481416295200,10.531295166015624,-0.05259601026773453,-0.05746816098690033,-0.009899363853037357
1744926481426255000,10.541255126953125,-0.042942583560943604,-0.044558219611644745,-0.0006896199774928391
1744926481436214300,10.55121435546875,-0.027767425402998924,-0.026572078466415405,0.013384904712438583
1744926481446174200,10.56117431640625,-0.0024855053052306175,-0.01330660656094551,0.022831670939922333
1744926481456133000,10.571133056640624,0.018305135890841484,0.010443123988807201,0.02713601291179657
1744926481466092300,10.58109228515625,0.03460261970758438,0.032165464013814926,0.028614599257707596
1744926481476052200,10.59105224609375,0.04549805819988251,0.0490231029689312,0.022616064175963402
1744926481486011400,10.601011474609376,0.05454348400235176,0.05294833704829216,0.021797409281134605
1744926481495970300,10.61097021484375,0.050291791558265686,0.05086327716708183,0.010756206698715687
1744926481505930200,10.62093017578125,0.040483102202415466,0.04369005188345909,-0.00231272354722023
1744926481515889200,10.63088916015625,0.019154123961925507,0.03067847527563572,-0.017540033906698227
1744926481525848000,10.64084814453125,0.005422599148005247,0.00926666148006916,-0.025339633226394653
1744926481535808300,10.650808349609376,-0.015008725225925446,-0.016693202778697014,-0.029336802661418915
1744926481545767400,10.660767333984374,-0.03403035178780556,-0.032347798347473145,-0.0319560244679451
1744926481555726300,10.670726318359375,-0.04667489975690842,-0.041973333805799484,-0.02780694141983986
1744926481565686300,10.680686279296875,-0.052388712763786316,-0.04903417453169823,-0.0231914184987545
1744926481575645200,10.690645263671875,-0.04620489850640297,-0.04916200414299965,-0.011032961308956146
1744926481585605000,10.700605224609374,-0.035048652440309525,-0.04033868387341499,0.003952912054955959
1744926481595564000,10.71056396484375,-0.021139560267329216,-0.023073192685842514,0.01792064495384693
1744926481605523500,10.7205234375,-0.0029051625169813633,-0.007602624129503965,0.02267571911215782
1744926481615483400,10.7304833984375,0.01754261739552021,0.010871869511902332,0.028952712193131447
1744926481625442300,10.7404423828125,0.03566143289208412,0.031195249408483505,0.03367502987384796
1744926481635401200,10.750401123046874,0.04568636044859886,0.04222017899155617,0.032599207013845444
1744926481645361200,10.760361083984375,0.04486929997801781,0.04631825163960457,0.02258092723786831
1744926481655320000,10.770320068359375,0.04260515049099922,0.04658035561442375,0.009770337492227554
1744926481665279200,10.780279296875,0.033965323120355606,0.03441690281033516,-0.004951882641762495
1744926481675239400,10.790239501953126,0.017819061875343323,0.021134385839104652,-0.017035914584994316
1744926481685198300,10.8001982421875,0.001793756615370512,0.002317554783076048,-0.02638920210301876
1744926481695158300,10.810158203125,-0.01768038049340248,-0.013989949598908424,-0.033981699496507645
1744926481705117200,10.8201171875,-0.0322452075779438,-0.027947310358285904,-0.03329567238688469
1744926481715076000,10.830076171875,-0.04435649514198303,-0.0373619943857193,-0.03233365714550018
1744926481725036000,10.8400361328125,-0.04362385720014572,-0.04196154326200485,-0.021464498713612556
1744926481734995200,10.8499951171875,-0.03932613506913185,-0.04169619455933571,-0.010684855282306671
1744926481744954400,10.859954345703125,-0.030757414177060127,-0.034640148282051086,0.004287969786673784
1744926481754914300,10.869914306640625,-0.01622593402862549,-0.018817534670233727,0.012757244519889355
1744926481764873200,10.879873291015626,0.004233003128319979,-0.004239656962454319,0.02564188465476036
1744926481774832000,10.88983203125,0.019035594537854195,0.011619709432125092,0.035208117216825485
1744926481784792000,10.8997919921875,0.032395873218774796,0.02792784385383129,0.035685088485479355
1744926481794751200,10.909751220703125,0.03921021893620491,0.03920717537403107,0.02999226748943329
1744926481804710100,10.919710205078125,0.042542897164821625,0.04206421598792076,0.01863761432468891
1744926481814670300,10.92967041015625,0.04023873060941696,0.038408759981393814,0.012040697038173676
1744926481824629200,10.939629150390624,0.027398832142353058,0.030733266845345497,-0.003658902831375599
1744926481834589200,10.949589111328125,0.012641001492738724,0.01791561394929886,-0.014989728108048439
1744926481844548400,10.95954833984375,-0.003974726889282465,0.002008819952607155,-0.029182512313127518
1744926481854507300,10.96950732421875,-0.019884413108229637,-0.013618705794215202,-0.035912226885557175
1744926481864467200,10.97946728515625,-0.03269688040018082,-0.027404025197029114,-0.034474652260541916
1744926481874426000,10.989426025390625,-0.036909326910972595,-0.035419948399066925,-0.029015297070145607
1744926481884385300,10.99938525390625,-0.038359951227903366,-0.03793343901634216,-0.021948331966996193
1744926481894345200,11.00934521484375,-0.032890208065509796,-0.03592309355735779,-0.01062709465622902
1744926481904304400,11.019304443359376,-0.025488218292593956,-0.027788465842604637,0.0022900360636413097
1744926481914263000,11.029262939453124,-0.010181983932852745,-0.01547119952738285,0.016601048409938812
1744926481924223000,11.039222900390625,0.004927993286401033,0.0028622671961784363,0.028109632432460785
1744926481934182000,11.049181884765625,0.021122941747307777,0.015110945329070091,0.034792568534612656
1744926481944140800,11.059140869140625,0.030090071260929108,0.025789421051740646,0.032876692712306976
1744926481954101000,11.06910107421875,0.0366661474108696,0.034696314483881,0.03424500674009323
1744926481964060200,11.07906005859375,0.036356955766677856,0.03443159535527229,0.02183600887656212
1744926481974020000,11.08902001953125,0.032755132764577866,0.030911115929484367,0.012524640187621117
1744926481983979000,11.09897900390625,0.021973326802253723,0.023418579250574112,-0.0018572279950603843
1744926481993938000,11.10893798828125,0.008685104548931122,0.014698276296257973,-0.017016159370541573
1744926482003897900,11.11889794921875,-0.005925796460360289,-0.0023803103249520063,-0.028170276433229446
1744926482013856800,11.128856689453125,-0.019831737503409386,-0.016695745289325714,-0.035581305623054504
1744926482023816000,11.13881591796875,-0.029401274397969246,-0.02232380397617817,-0.03536399081349373
1744926482033776000,11.148776123046876,-0.03617475926876068,-0.028729503974318504,-0.0349474735558033
1744926482043735000,11.158735107421874,-0.03450842201709747,-0.03418179601430893,-0.02346445433795452
1744926482053694000,11.16869384765625,-0.029186805710196495,-0.027520526200532913,-0.012341998517513275
1744926482063654000,11.17865380859375,-0.01940261758863926,-0.01943890005350113,0.003124043345451355
1744926482073613000,11.188613037109375,-0.006497824098914862,-0.012348934076726437,0.012924976646900177
1744926482083573000,11.198572998046876,0.0060533881187438965,0.003949611913412809,0.024643419310450554
1744926482093532200,11.2085322265625,0.021892502903938293,0.01315474696457386,0.03374319151043892
1744926482103491000,11.218490966796875,0.031151248142123222,0.021620403975248337,0.038471899926662445
1744926482113451000,11.228450927734375,0.03378268703818321,0.02726687118411064,0.03281078487634659
1744926482123410000,11.238409912109375,0.03186414763331413,0.030006196349859238,0.02465006150305271
1744926482133369000,11.248369140625,0.02781485579907894,0.026911264285445213,0.011089509353041649
1744926482143329000,11.2583291015625,0.014014355838298798,0.017644530162215233,-0.0012358659878373146
1744926482153288000,11.268287841796875,0.002960164099931717,0.005718653090298176,-0.015663696452975273
1744926482163246800,11.278246826171875,-0.009015006013214588,-0.002004779875278473,-0.02634696662425995
1744926482173207000,11.28820703125,-0.02032272331416607,-0.014792433008551598,-0.03311697393655777
1744926482183166000,11.298166015625,-0.027987034991383553,-0.02239229530096054,-0.03685605153441429
1744926482193125000,11.308125,-0.028979754075407982,-0.026287410408258438,-0.029279842972755432
1744926482203085000,11.3180849609375,-0.029904404655098915,-0.02726665511727333,-0.022969482466578484
1744926482213044000,11.3280439453125,-0.022474346682429314,-0.02275470457971096,-0.011170300655066967
1744926482223004200,11.338004150390624,-0.011875765398144722,-0.014293842017650604,-0.00032857182668522
1744926482232963000,11.347963134765624,-0.0019643246196210384,-0.0017740540206432343,0.012575836852192879
1744926482242922000,11.357921875,0.009031068533658981,0.004469726700335741,0.027897801250219345
1744926482252882000,11.3678818359375,0.021338922902941704,0.016740266233682632,0.03212780877947807
1744926482262841000,11.377841064453126,0.026109443977475166,0.02190493419766426,0.036242395639419556
1744926482272800000,11.387800048828124,0.02961762621998787,0.02592630870640278,0.03478511422872543
1744926482282760000,11.397760009765625,0.025860970839858055,0.023571541532874107,0.024969765916466713
1744926482292718800,11.40771875,0.020878955721855164,0.024326108396053314,0.012399551458656788
1744926482302677800,11.417677734375,0.009638287127017975,0.012730972841382027,0.0008057467639446259
1744926482312638000,11.427637939453126,-0.001695440849289298,-0.0005388078279793262,-0.015216050669550896
1744926482322597000,11.43759716796875,-0.013883131556212902,-0.0063287862576544285,-0.026285745203495026
1744926482332557000,11.44755712890625,-0.020737240090966225,-0.016869794577360153,-0.03222963958978653
1744926482342516000,11.457515869140625,-0.026647860184311867,-0.023494940251111984,-0.036718130111694336
1744926482352475000,11.467474853515625,-0.02864796109497547,-0.02232665941119194,-0.033439792692661285
1744926482362435000,11.47743505859375,-0.02778935804963112,-0.018703430891036987,-0.02593820169568062
1744926482372394000,11.48739404296875,-0.020992696285247803,-0.01553131453692913,-0.015278463251888752
1744926482382353200,11.497353271484375,-0.008471578359603882,-0.008700838312506676,0.0010616282233968377
1744926482392313000,11.50731298828125,0.003941519185900688,0.001377916894853115,0.014158302918076515
1744926482402272000,11.51727197265625,0.014305477030575275,0.009715741500258446,0.02424076572060585
1744926482412231000,11.52723095703125,0.024333525449037552,0.015772666782140732,0.035141050815582275
1744926482422190800,11.53719091796875,0.029633749276399612,0.022888366132974625,0.034367937594652176
1744926482432149800,11.547149658203125,0.025032490491867065,0.023239854723215103,0.031221725046634674
1744926482442109000,11.55710888671875,0.021182892844080925,0.017493553459644318,0.024806436151266098
1744926482452069000,11.567069091796874,0.01648792065680027,0.01583290286362171,0.013148948550224304
1744926482462028000,11.577028076171874,0.005551914684474468,0.00437145633623004,-0.0024385328870266676
1744926482471988000,11.586988037109375,-0.003019575960934162,-0.0018043683376163244,-0.014036973938345909
1744926482481947000,11.59694677734375,-0.01579609140753746,-0.008925395086407661,-0.023744195699691772
1744926482491906000,11.606906005859376,-0.01997658610343933,-0.01396559365093708,-0.031747233122587204
1744926482501866000,11.616865966796874,-0.027686437591910362,-0.016898000612854958,-0.03442983329296112
1744926482511825200,11.6268251953125,-0.02454030141234398,-0.022231586277484894,-0.030565444380044937
1744926482521784000,11.6367841796875,-0.022104308009147644,-0.015363560058176517,-0.025325141847133636
1744926482531744000,11.646743896484375,-0.013250449672341347,-0.012183383107185364,-0.012153713032603264
1744926482541703000,11.656702880859376,-0.005137395579367876,-0.004915083758533001,0.00009736092761158943
1744926482551662000,11.666662109375,0.006690416019409895,0.004972265567630529,0.01113693043589592
1744926482561622000,11.6766220703125,0.015838641673326492,0.011137749999761581,0.020492350682616234
1744926482571581000,11.686580810546875,0.022362595424056053,0.018004735931754112,0.026458268985152245
1744926482581541000,11.696541015625,0.021579094231128693,0.01757117360830307,0.03064103052020073
1744926482591500000,11.7065,0.0225102286785841,0.023921212181448936,0.02565173991024494
1744926482601459000,11.716458984375,0.0211900994181633,0.0167184267193079,0.023752108216285706
1744926482611419000,11.7264189453125,0.013125333935022354,0.006542656105011702,0.016407674178481102
1744926482621378000,11.7363779296875,0.004274850245565176,0.0028097028844058514,0.004562198184430599
1744926482631337000,11.7463369140625,-0.007266378030180931,-0.006613312754780054,-0.007964026182889938
1744926482641297200,11.756297119140624,-0.014979158528149128,-0.013325544074177742,-0.020290466025471687
1744926482651256000,11.766256103515625,-0.021816717460751534,-0.016954679042100906,-0.02755492925643921
1744926482661215000,11.776215087890625,-0.022290227934718132,-0.014901647344231606,-0.02882472425699234
1744926482671175000,11.7861748046875,-0.019208036363124847,-0.016230249777436256,-0.0315859355032444
