time,seconds_elapsed,z,y,x
1745104043792440800,0.05044091796875,-0.2699876651715487,-0.07858429189324379,-0.9121312112867832
1745104043802397000,0.06039697265625,0.42643626412041485,-0.38004502675831314,-1.2467552339546382
1745104043812352000,0.07035205078125,1.2177649209875612,0.21932605701386929,-0.8245493739455938
1745104043822308000,0.08030810546875,1.6068308010041712,1.1777058092564343,-0.6371642233327031
1745104043832264000,0.090263916015625,2.0094968248933553,1.2185077752441167,-0.7491555486567318
1745104043842220000,0.100219970703125,1.8210598271399736,0.6566571515709161,-0.43048152092322706
1745104043852175000,0.110175048828125,1.085672326268628,0.21455109769701958,0.2992690335070714
1745104043862131000,0.120130859375,0.6360170991241931,0.07029284888803959,0.7400432907879352
1745104043872087000,0.130087158203125,0.3783083391588181,0.23908114331960675,0.6826872264929116
1745104043882043000,0.14004296875,-0.13067103748321532,0.31082945171296594,0.7962602680504322
1745104043891998000,0.149998046875,-0.8760229560732841,-0.11203472607433795,1.1360785714257509
1745104043901954000,0.1599541015625,-1.597939054018259,-0.8168973978877067,0.9603094051308929
1745104043911910100,0.16991015625,-1.8251199161857365,-1.1458721626222133,0.3187350372057408
1745104043921866000,0.179865966796875,-1.6676041263967751,-0.7412146726548672,-0.09859364522099494
1745104043931821000,0.189821044921875,-1.3577414738893507,-0.16859890933930874,-0.23949684798102824
1745104043941777000,0.19977685546875,-0.7978752289664,-0.13738894756138323,-0.6380471436470747
1745104043951733000,0.20973291015625,-0.3190437378287315,-0.31517244935333727,-1.2545903114944696
1745104043961689000,0.219689208984375,0.12868892375528812,-0.19949322929680346,-1.3529277899973093
1745104043971644000,0.229643798828125,0.739805463444069,0.2822650360077619,-0.911816811575368
1745104043981600000,0.23960009765625,1.2966022377938031,0.7837281187355518,-0.6520059647642076
1745104043991555800,0.249555908203125,1.629468749269843,0.8726432505071162,-0.536672014481388
1745104044001512000,0.259511962890625,1.5758096397966146,0.6255775381743908,-0.04850779112465679
1745104044011467000,0.269467041015625,1.248867842194438,0.41803368889093395,0.6607602760408073
1745104044021423000,0.279423095703125,1.0112358017046004,0.3275847716808319,0.9864215323131531
1745104044031379000,0.28937890625,0.7156769843596965,0.4024567650526762,0.9750111535698175
1745104044041335000,0.2993349609375,0.24433256104178724,0.3595096037298441,1.0976165926929562
1745104044051290000,0.3092900390625,-0.4104764784444123,-0.04107084605693817,1.225165552632883
1745104044061246000,0.319245849609375,-1.0628087525535375,-0.548048892813921,0.8108800372943281
1745104044071202000,0.3292021484375,-1.385263102543354,-0.7982984958797693,0.08696275559477508
1745104044081158000,0.339157958984375,-1.4243494967848063,-0.5926432368218898,-0.35072811218537386
1745104044091113200,0.34911328125,-1.3739502658903597,-0.313149419093132,-0.5524121295247226
1745104044101069000,0.359069091796875,-1.1428203007709234,-0.3735241005569696,-1.0282349403657018
1745104044111025200,0.369025146484375,-0.6920545551013201,-0.5239934789657592,-1.5018049307785928
1745104044120980000,0.37897998046875,-0.2894066513907164,-0.2496767716139555,-1.3837269790172577
1745104044130935800,0.388935791015625,0.22570845152735708,0.2195201182812452,-0.9172364254713058
1745104044140892000,0.398891845703125,0.8071504953771829,0.4835983402132988,-0.6109654407802969
1745104044150848000,0.408847900390625,1.1430601008761674,0.5209346759170294,-0.39916733158584683
1745104044160803000,0.418802978515625,1.2210692232299596,0.4666998123824596,0.21125523448940364
1745104044170759000,0.428759033203125,1.2558166384190321,0.5007645790696144,0.9603278175704181
1745104044180715000,0.438715087890625,1.2272919702023266,0.5507809481263161,1.2222012229345738
1745104044190670800,0.4486708984375,1.0189882424622774,0.5660749633699655,1.16708329295516
1745104044200626000,0.4586259765625,0.5954618013739585,0.39549978552162646,1.2386723191335796
1745104044210582000,0.46858203125,0.016547887762263416,0.05546119045913219,1.193023059245199
1745104044220537900,0.478537841796875,-0.5016500566672534,-0.30722119808793064,0.6376552217200399
1745104044230494000,0.488493896484375,-0.8606039262104779,-0.45170799495577807,-0.1079359124533832
1745104044240449000,0.498448974609375,-1.0787620354235172,-0.39761926189363,-0.5184096144188195
1745104044250405000,0.508405029296875,-1.2644663933426141,-0.36748365134894845,-0.7551618033342063
1745104044260361000,0.51836083984375,-1.3045657640188932,-0.5320423453867436,-1.2224594354793428
1745104044270317000,0.528317138671875,-1.064254859708622,-0.6674310590416193,-1.5958179702110589
1745104044280272100,0.538272216796875,-0.6413106024224311,-0.41208325605392454,-1.4056535641431807
1745104044290228000,0.54822802734375,-0.22192951751053333,0.10677753619849681,-0.8713801717687397
1745104044300184000,0.55818408203125,0.3218722392529249,0.32972178370952604,-0.5361617268716916
1745104044310140000,0.568139892578125,0.7462170840520411,0.3084580464065075,-0.21201240953225642
1745104044320096000,0.578095947265625,0.9466035358615219,0.3097287969946861,0.46300746067054566
1745104044330051000,0.588051025390625,1.0940040282189845,0.48039340669214725,1.1179059320058673
1745104044340007200,0.598007080078125,1.2160171274721623,0.6091904669970274,1.319686322391778
1745104044349963000,0.607962890625,1.1512579473137854,0.6065975278943777,1.2543192394681275
1745104044359919000,0.617919189453125,0.863854452439025,0.473871895968914,1.2538222497314213
1745104044369874000,0.6278740234375,0.4469979906339198,0.1871744304716587,1.0934644414495676
1745104044379829800,0.637829833984375,0.01575461849272251,-0.0559662173718214,0.4866436261933297
1745104044389786000,0.6477861328125,-0.3393617917794734,-0.16099077242314816,-0.24576639323718844
1745104044399742000,0.657741943359375,-0.6624293052315712,-0.19698679943382738,-0.6616660657741129
1745104044409697000,0.667697021484375,-0.9966256770718842,-0.32539339911639686,-0.9117620857134461
1745104044419652900,0.67765283203125,-1.218279811707139,-0.5521019675970077,-1.3447580736756324
1745104044429609000,0.68760888671875,-1.1868809762936086,-0.6892495076179505,-1.6125174683384595
1745104044439565000,0.69756494140625,-0.9488601556818932,-0.49340603300034996,-1.329533762667328
1745104044449519900,0.707519775390625,-0.625545389470458,-0.112603465873003,-0.773624584807083
1745104044459476000,0.71747607421875,-0.18169219966828823,0.07692892590165137,-0.40318770967572926
1745104044469431800,0.727431884765625,0.20099428150951862,0.07124094339311123,-0.03715498778745532
1745104044479388000,0.737387939453125,0.47700033018775284,0.14954817191064357,0.6086102924888953
1745104044489343000,0.747343017578125,0.8030185832042247,0.36419513119757174,1.1784782549336552
1745104044499299000,0.757299072265625,1.110564775462821,0.5736643955856562,1.3236248308844865
1745104044509255000,0.7672548828125,1.2238182296771556,0.6348071388125419,1.2174155960932374
1745104044519211000,0.7772109375,1.0936404556035995,0.5391898790538311,1.1778496016412974
1745104044529166000,0.787166015625,0.7899134563069791,0.36874738767445087,0.9519802604638039
1745104044539122200,0.7971220703125,0.4944138218034059,0.15007131900191306,0.3205125682722777
1745104044549078000,0.807078125,0.18522168896868824,0.04752162963151931,-0.32749548596218225
1745104044559034000,0.8170341796875,-0.25278518595807253,-0.002398293313384056,-0.7357859986696392
1745104044568989000,0.826989013671875,-0.6862954070527106,-0.20276888996660708,-1.0010594217356295
1745104044578945000,0.836945068359375,-0.9960650475144386,-0.5038789116978645,-1.3534382237374782
1745104044588901000,0.846901123046875,-1.1690518896143882,-0.6459194844573736,-1.477102451198548
1745104044598857000,0.85685693359375,-1.1272047984879463,-0.5216057070463895,-1.1323925033241509
1745104044608812000,0.86681201171875,-0.9418786992967129,-0.26812252888679505,-0.6455035240676253
1745104044618768000,0.876767822265625,-0.6365945336859673,-0.15632511869966983,-0.2741434331441298
1745104044628724200,0.88672412109375,-0.28197577073760327,-0.1342313603132963,0.12611867140848187
1745104044638680000,0.89668017578125,0.056700888321921224,0.01221066227555275,0.7110878299385309
1745104044648635000,0.906634765625,0.46967035262584683,0.23621055631935595,1.1595458831876515
1745104044658591000,0.916591064453125,0.879759293057397,0.4797755670547485,1.227302491596341
1745104044668546600,0.926546630859375,1.1712667891848831,0.6094172614902258,1.1167487247947603
1745104044678502700,0.936502685546875,1.2345230904996394,0.5955290213912725,1.0134462442956864
1745104044688457700,0.946457763671875,1.080444947009161,0.46340077083706854,0.7059203641727566
1745104044698413600,0.95641357421875,0.8740146119255572,0.32899463847875593,0.11937568168798461
1745104044708369700,0.96636962890625,0.6516350125599653,0.23695640625059602,-0.408993034953624
1745104044718325500,0.976325439453125,0.22248137923963365,0.16761282091140747,-0.7382956434030086
1745104044728280600,0.986280517578125,-0.29371691580526527,-0.040186464437842365,-0.992129534696415
1745104044738236700,0.996236572265625,-0.6886643281411379,-0.37587504759728907,-1.2378301692210136
1745104044748192500,1.006192626953125,-1.0189969372253864,-0.58178866533041,-1.2622590925566852
1745104044758148600,1.016148681640625,-1.2240039615076035,-0.5067547593951225,-0.9103559452425688
1745104044768103700,1.026103759765625,-1.1721159533601253,-0.38968203915357585,-0.48824762732386584
1745104044778059800,1.036059814453125,-0.9913771819591521,-0.36767245191931724,-0.13806047188108786
1745104044788015600,1.046015625,-0.7308002461463212,-0.30696400845646854,0.24297208634354173
1745104044797971700,1.0559716796875,-0.35285365297198296,-0.156574709546566,0.7214693770907818
1745104044807926500,1.065926513671875,0.12417232311367987,0.11693535759747027,1.062106376437843
1745104044817882600,1.075882568359375,0.6155459735035896,0.3670920216828584,1.0628897819004952
1745104044827838700,1.085838623046875,0.96757669272013,0.5157955594629049,0.8917366580337286
1745104044837794600,1.095794677734375,1.1581962952096014,0.5176479093313217,0.7756460076320916
1745104044847750700,1.105750732421875,1.1956921323239802,0.5006663793921471,0.4740143001142889
1745104044857705500,1.11570556640625,1.0996066705316305,0.45929158195257186,-0.04457308202423155
1745104044867661800,1.125661865234375,0.9735241298824548,0.4024205246955156,-0.5089658961059526
1745104044877617700,1.13561767578125,0.6260651024956255,0.3061637979894876,-0.7318408412404358
1745104044887573800,1.14557373046875,0.12389650184698402,0.08691957404017447,-0.8861709136653692
1745104044897528600,1.155528564453125,-0.3499672108154744,-0.2110603329718113,-1.0310841923169791
1745104044907484700,1.165484619140625,-0.7485550985455512,-0.4169049771219492,-0.9661337273702025
1745104044917440800,1.175440673828125,-1.0432938316792248,-0.42293548945784565,-0.6685078944928944
1745104044927396900,1.18539697265625,-1.1875192741971463,-0.41736791845858096,-0.26488210392715406
1745104044937351700,1.1953515625,-1.1913116522174327,-0.4610609297126531,0.06850463203070685
1745104044947307500,1.2053076171875,-1.0616348864685743,-0.4591629871368408,0.3694687607515603
1745104044957263600,1.215263671875,-0.7414601718485355,-0.3214408620983362,0.6609225539304315
1745104044967219700,1.2252197265625,-0.27005546971075234,-0.029426000970602034,0.8492335872165858
1745104044977174800,1.2351748046875,0.25446992417462166,0.23084756798148154,0.8456708532337098
1745104044987130600,1.245130615234375,0.6825269944299012,0.38495910228490826,0.6747413820549846
1745104044997086700,1.255086669921875,0.9707138217020779,0.44079906292855736,0.43232656426802274
1745104045007042600,1.26504248046875,1.1814854008603841,0.4742652792006731,0.14833028402086346
1745104045016997600,1.27499755859375,1.3086638469874858,0.5296873066931963,-0.2029769066940993
1745104045026953700,1.28495361328125,1.195903802313283,0.5889829607486724,-0.5184967447130009
1745104045036909600,1.29490966796875,0.9411544766753911,0.45973523406684397,-0.6838479408353567
1745104045046865700,1.30486572265625,0.5227437711656093,0.1788081686645746,-0.7809810119844972
1745104045056820700,1.31482080078125,-0.013117840248346328,-0.0716606301099062,-0.7318348498910665
1745104045066776800,1.32477685546875,-0.483670163340494,-0.21793840204775333,-0.6144413001973181
1745104045076732700,1.334732666015625,-0.8704710940998047,-0.31320377962887286,-0.3579125437967479
1745104045086688800,1.344688720703125,-1.1706377705663442,-0.42344110089242454,-0.041305093204230064
1745104045096643600,1.3546435546875,-1.3495020533323288,-0.551006573575735,0.24440058477669954
1745104045106599700,1.364599609375,-1.3399392752170562,-0.6168161395698786,0.477898009679839
1745104045116555800,1.3745556640625,-1.0214840778660028,-0.47600072469115257,0.5794221188621596
1745104045126511600,1.38451171875,-0.5327887067746371,-0.14155951124429703,0.5882126704959199
1745104045136466700,1.394466796875,-0.03902370426878333,0.1649544153571129,0.5242269954606891
1745104045146422500,1.404422607421875,0.3964689228147268,0.28189444912970063,0.4076524339996278
1745104045156378600,1.414378662109375,0.7498708573192358,0.2571826171994209,0.1528464645373635
1745104045166334700,1.424334716796875,1.0693547401309014,0.3745236329883337,-0.15315154843116177
1745104045176290800,1.434290771484375,1.3268699502855539,0.5674953515619039,-0.36456374531425534
1745104045186245600,1.44424560546875,1.372635091638565,0.6905301950782538,-0.47568343890290704
1745104045196201500,1.454201416015625,1.157875246561691,0.5668874487966299,-0.5789403632272034
1745104045206157600,1.464157470703125,0.7600866194505244,0.2455810267329216,-0.5935290432130917
1745104045216113700,1.47411376953125,0.2863234445530921,-0.0010129764348268508,-0.44341143738403915
1745104045226068700,1.48406884765625,-0.19577325892560182,-0.08289104917645454,-0.2428578488467261
1745104045236024600,1.494024658203125,-0.5964893177907914,-0.17254969279170035,-0.05734221843276172
1745104045245980700,1.503980712890625,-0.9681015203118324,-0.3376327029645443,0.13395175792062655
1745104045255936500,1.5139365234375,-1.3137994563102722,-0.5161275678962469,0.35364436495825646
1745104045265891600,1.5238916015625,-1.411280171853304,-0.6568886222392321,0.5150534358587116
1745104045275847700,1.53384765625,-1.191143967500329,-0.5629910258799791,0.4711836432656273
1745104045285803500,1.543803466796875,-0.7569727982789277,-0.25055881514549255,0.3664895622776821
1745104045295759600,1.553759521484375,-0.2585941644977778,0.0473000958353281,0.28941377525124695
1745104045305714700,1.563714599609375,0.14867438475079833,0.17777122683227062,0.13409162304904312
1745104045315670800,1.5736708984375,0.5476099899400025,0.18339198932349682,-0.16269070820882917
1745104045325626600,1.583626708984375,0.9096231009233743,0.27601532796323297,-0.39802470088936387
1745104045335582700,1.593582763671875,1.1952524987976998,0.5289858804255724,-0.49532790444102137
1745104045345537500,1.60353759765625,1.3211913201272487,0.6832844617336988,-0.5017931914649904
1745104045355493600,1.61349365234375,1.2045043843328953,0.5863935287773608,-0.48415597409605976
1745104045365449700,1.62344970703125,0.8619207809627055,0.3094891430199146,-0.40338023657314476
1745104045375405600,1.633405517578125,0.45158699892461296,0.07075637474656105,-0.19180720483884214
1745104045385360600,1.643360595703125,0.019788988575339315,-0.002854220387339592,0.06343295478960499
1745104045395316500,1.65331640625,-0.4024684554904699,-0.060163084539771074,0.2556728519572876
1745104045405272800,1.66327294921875,-0.7829893561322242,-0.25552257503271103,0.37093737199939786
1745104045415228700,1.673228759765625,-1.1690817732959986,-0.47376609750688076,0.46076728052832183
1745104045425183700,1.683183837890625,-1.3560311628401278,-0.6083499245196581,0.5001935742486268
1745104045435139600,1.6931396484375,-1.1834380692981183,-0.5634639040887356,0.38916882893443105
1745104045445095400,1.703095458984375,-0.8528285429686308,-0.2825058590263128,0.16936052309526128
1745104045455051800,1.7130517578125,-0.4350573044061661,-0.03525894490778446,-0.03158769078282639
1745104045465006600,1.723006591796875,0.007553264923766255,0.06827741741240025,-0.18692502228785304
1745104045474962700,1.732962646484375,0.3668757485836744,0.10745967324376106,-0.39299204048439856
1745104045484918500,1.74291845703125,0.7488350845307111,0.22259119628965854,-0.560201468226686
1745104045494874600,1.75287451171875,1.1048183407653123,0.46155192809998985,-0.5984668284088372
1745104045504829700,1.76282958984375,1.2810387579590081,0.6603717881798744,-0.4607974199382588
1745104045514785800,1.772785888671875,1.2501052750349044,0.6095230599522591,-0.3085262893371284
1745104045524741600,1.78274169921875,0.969586790433526,0.36128012053370473,-0.15207138851163907
1745104045534697700,1.79269775390625,0.6037883887577802,0.15879589272737502,0.06945780456969514
1745104045544652800,1.80265283203125,0.22724873977191745,0.10012743065953254,0.341596345898509
1745104045554608600,1.812608642578125,-0.15735395029075444,0.05082710091769695,0.5027466927975416
1745104045564564700,1.822564697265625,-0.5401940876603126,-0.13240706749558448,0.5556521708918735
1745104045574520600,1.8325205078125,-0.9420897847641259,-0.3914356048226356,0.5284297078475356
1745104045584475600,1.8424755859375,-1.2045371175587176,-0.5749316390424967,0.40515637940019367
1745104045594431700,1.852431640625,-1.2139899324934929,-0.5531745652645826,0.21218964752899483
1745104045604387800,1.862387939453125,-0.9933487012278288,-0.34914076992869375,-0.05689615516569465
1745104045614343700,1.87234375,-0.642721492133662,-0.16871990537047385,-0.30334073992539196
1745104045624298500,1.882298583984375,-0.27941424968652423,-0.05699497589766979,-0.5168539824746549
1745104045634254600,1.892254638671875,0.06585581628866494,-0.013160510346293449,-0.639680297806859
1745104045644210700,1.902210693359375,0.45309155826866626,0.13469722425937652,-0.6633155865468084
1745104045654166800,1.912166748046875,0.8313444409132004,0.34783377898335455,-0.6040008259320632
1745104045664121600,1.92212158203125,1.0974182205766438,0.5561731625586748,-0.4010858785582706
1745104045674078200,1.932078125,1.1556781749088316,0.5768243209213018,-0.16007966719390823
1745104045684034000,1.942033935546875,1.0183412497956306,0.4258054919362068,0.08829984941743314
1745104045693990100,1.951990234375,0.7656892617631703,0.2580705059498548,0.3321491204543039
1745104045703945200,1.9619453125,0.475685155935958,0.19819091452658175,0.5485502664647997
1745104045713901000,1.971901123046875,0.11074176365435123,0.15858078867197037,0.6985936745464801
1745104045723857200,1.981857177734375,-0.2869323702316731,-0.009507833057641982,0.6707887719716876
1745104045733812000,1.99181201171875,-0.6482786878693848,-0.2780745985805988,0.5239634491536767
1745104045743768300,2.001768310546875,-0.9315046778637915,-0.44891339580118655,0.30898177801966664
1745104045753724200,2.01172412109375,-1.017504141384363,-0.4576946681499481,0.04896945381965488
1745104045763680300,2.02168017578125,-0.9123755414366722,-0.3229442523986101,-0.2537424136176705
1745104045773635000,2.031635009765625,-0.7184154694128781,-0.22028175030350683,-0.516821431911923
1745104045783591200,2.041591064453125,-0.48104924025237555,-0.18787234960794447,-0.7124329609371721
1745104045793547300,2.05154736328125,-0.1736016860626638,-0.12391688704788684,-0.7778801964249461
1745104045803503400,2.06150341796875,0.1880073741644621,0.02168283949792385,-0.7432989315830171
1745104045813458200,2.071458251953125,0.5448662441898137,0.25628362253308296,-0.5803345209993421
1745104045823414000,2.0814140625,0.8255599392276257,0.437560227137804,-0.3097427524548024
1745104045833370000,2.0913701171875,0.9662041622579097,0.46609658579230306,-0.0061365665262565015
1745104045843326200,2.101326171875,0.9309563232660293,0.38177988772690297,0.3103513128072023
1745104045853281300,2.11128125,0.7761356908451765,0.31276305012404915,0.538010788804479
1745104045863237000,2.121237060546875,0.5841582440059632,0.2794043858796358,0.7147055820442736
1745104045873193200,2.131193115234375,0.34444355202317234,0.2330366024583578,0.8019974965281784
1745104045883149000,2.141149169921875,0.008887655332684517,0.07427928817570209,0.7136638179063797
1745104045893104000,2.151104248046875,-0.3704482002429664,-0.14753917017579077,0.5073991217132657
1745104045903060200,2.161060302734375,-0.6454681604932994,-0.32220190959870815,0.20879321002373472
1745104045913016000,2.17101611328125,-0.7982347829937935,-0.35804537639617917,-0.1116208663101308
1745104045922971100,2.18097119140625,-0.8294002480428665,-0.3003472206652164,-0.43807358348742126
1745104045932927200,2.19092724609375,-0.7567477573513984,-0.27782559225559234,-0.6956793945349753
1745104045942883300,2.20088330078125,-0.6216156488060951,-0.27073709529936313,-0.8274251485776156
1745104045952839200,2.210839111328125,-0.3879107916973531,-0.21903554963469504,-0.8622996972776948
1745104045962794000,2.2207939453125,-0.06927512321285903,-0.06465981143712997,-0.7593444958463311
1745104045972750000,2.23075,0.2612024473000318,0.14740356109738348,-0.5190005295166745
1745104045982706200,2.2407060546875,0.5399843173671514,0.30309973424375053,-0.21489992940099908
1745104045992662300,2.250662353515625,0.701184275561571,0.33862288304567334,0.11698843949157745
1745104046002617000,2.2606171875,0.7841630030214786,0.3306260390728712,0.4489824059167877
1745104046012573200,2.2705732421875,0.7649409276138991,0.3224690361022949,0.6967525036592036
1745104046022529000,2.280529052734375,0.6760960115343332,0.33889351668059825,0.8293678801432252
1745104046032485000,2.290485107421875,0.4910750327695161,0.30393209341466426,0.8458242171645164
1745104046042440200,2.300440185546875,0.22874694244042038,0.16460311770141123,0.7141664336662739
1745104046052396000,2.31039599609375,-0.09154774529747664,-0.036083120772242544,0.4633086355742067
1745104046062352100,2.32035205078125,-0.35387590869180857,-0.17854630285799503,0.10239064461747184
1745104046072308000,2.330307861328125,-0.5414910686682909,-0.24693887108266352,-0.2466315952317789
1745104046082263300,2.34026318359375,-0.6465040063470602,-0.22016893757879732,-0.5603242908887565
1745104046092219100,2.35021923828125,-0.6583231120217591,-0.24160218622982502,-0.8194463517181575
1745104046102175200,2.36017529296875,-0.6132984868377447,-0.2950888617455959,-0.9500248886123299
1745104046112130000,2.370130126953125,-0.47795653493404383,-0.2596229960888624,-0.8983592910438776
1745104046122086100,2.380086181640625,-0.26957499271742996,-0.12421148608028888,-0.7248468906998634
1745104046132042200,2.390042236328125,0.035278307195380325,0.05909282495975494,-0.45181631416846063
1745104046141998000,2.399998046875,0.285752951188758,0.18568974487185477,-0.11077109934668987
1745104046151953200,2.409953125,0.4622252973169088,0.22598785299062726,0.25299714820832014
1745104046161909000,2.419908935546875,0.6033972705483436,0.2618669756233692,0.5859557218819856
1745104046171865300,2.429865234375,0.6737637691944837,0.3064472911059856,0.7947614808600395
1745104046181821200,2.4398212890625,0.6826725403804331,0.3296569017797708,0.8765816859345883
1745104046191776300,2.4497763671875,0.5891659891653805,0.3123690823704004,0.8340948355998843
1745104046201732000,2.459732177734375,0.3809679868221283,0.2108452289164066,0.6425437974791973
1745104046211688000,2.46968798828125,0.14670805311389268,0.06684943043589592,0.35554128462076184
1745104046221644300,2.479644287109375,-0.08856792576909064,-0.06675239980220794,-0.011381262246705591
1745104046231599000,2.48959912109375,-0.2958388033300638,-0.12740706725120543,-0.3712359896197915
1745104046241555200,2.49955517578125,-0.48417475186176595,-0.1809358283430338,-0.6850805513702333
1745104046251511000,2.509510986328125,-0.587671366693452,-0.25272914492189885,-0.8810609502404928
1745104046261466400,2.51946630859375,-0.6247247938025743,-0.31163609192073344,-0.9583882278099656
1745104046271422200,2.529422119140625,-0.5942973607044667,-0.2721165669590235,-0.8482306937843561
1745104046281378300,2.53937841796875,-0.4036403488140553,-0.18172493289411068,-0.6369346523605287
1745104046291334100,2.549334228515625,-0.21096089118532835,-0.04509878639876842,-0.35134697473607956
1745104046301289000,2.5592890625,-0.008149915642663836,0.07147007597386837,-0.0003054126873612404
1745104046311245300,2.569245361328125,0.21191965321488676,0.11842939554750918,0.3548806652875617
1745104046321201200,2.579201171875,0.41409108874499795,0.18343465942144394,0.6568291471369564
1745104046331157200,2.5891572265625,0.5680857186704874,0.2860328641086817,0.8253663894169032
1745104046341112000,2.599112060546875,0.6652705930721015,0.3500222289383411,0.8541074768632649
1745104046351068200,2.609068115234375,0.6750952369939536,0.3456576039880514,0.7877304862447082
1745104046361024300,2.619024169921875,0.5538735803794116,0.26129472869336606,0.5397219401039183
1745104046370979000,2.62897900390625,0.3995008378565311,0.14949322685301303,0.22786234162561594
1745104046380935200,2.63893505859375,0.17431502196379006,0.07206628830134869,-0.12740332265784962
1745104046390891000,2.64889111328125,-0.04049976817071438,-0.004632335975766182,-0.4514917949218303
1745104046400847000,2.65884716796875,-0.251057339252159,-0.0977455039590597,-0.7046692681331187
1745104046410802200,2.66880224609375,-0.46848786484301086,-0.22274901719987392,-0.8754653221905231
1745104046420758300,2.67875830078125,-0.5912947448223829,-0.2952273934334516,-0.8868183447234332
1745104046430714000,2.688714111328125,-0.6154279000818729,-0.28149346711337564,-0.7682073820639401
1745104046440670200,2.698670166015625,-0.5530026427637785,-0.22620354156792163,-0.5242716748526319
1745104046450625300,2.708625244140625,-0.42324579751603303,-0.1471720904290676,-0.20914690056592225
1745104046460581000,2.7185810546875,-0.23896065874509512,-0.06851297973394394,0.12988865493386983
1745104046470537200,2.728537109375,-0.033109584854170676,0.020525486156344412,0.43947921250164507
1745104046480492000,2.738491943359375,0.20684234995059667,0.10774842705726623,0.6855196734398603
1745104046490448100,2.7484482421875,0.4297035953532904,0.2294283488333225,0.7888295335277915
1745104046500404200,2.758404296875,0.6062181731879711,0.3144447196006775,0.7627066657558083
1745104046510360300,2.7683603515625,0.6731260558128357,0.33945933386981486,0.6583051379736512
1745104046520315100,2.778315185546875,0.6578185965657234,0.3083522479444742,0.404383641462028
1745104046530271000,2.78827099609375,0.5756254665255546,0.2435503976881504,0.07712127013597637
1745104046540227000,2.79822705078125,0.4236350890945643,0.19071487955749034,-0.23867977771079166
1745104046550183200,2.80818310546875,0.23543423818461595,0.11518997523486614,-0.5094106441987678
1745104046560138200,2.81813818359375,0.003325345030426979,-0.015410335099697112,-0.7042349683690816
1745104046570094000,2.828093994140625,-0.2861877624094486,-0.13544424323439597,-0.7986131147868931
1745104046580050200,2.83805029296875,-0.4811181407701224,-0.23499007461369037,-0.7810707360945641
1745104046590006000,2.848006103515625,-0.6197908445317298,-0.27431144665479656,-0.6111576023515314
1745104046599961000,2.857961181640625,-0.6684452045202255,-0.2556920863807201,-0.3611050562277436
1745104046609917200,2.867917236328125,-0.6154694011360407,-0.2350748302876949,-0.07962956316247582
1745104046619873000,2.877873046875,-0.4938830028623342,-0.188102651232481,0.20935685352217404
1745104046629828000,2.887828125,-0.3152355046521872,-0.10506839419305324,0.47741442741397766
1745104046639784200,2.8977841796875,-0.06874028568379581,0.0133107324719429,0.6455730091072619
1745104046649740300,2.907740234375,0.2096043620098382,0.13372750244438647,0.6916412250600755
1745104046659696000,2.917696044921875,0.45204869815222914,0.23845044420063494,0.6203340845629572
1745104046669651200,2.927651123046875,0.6301198577791453,0.29017770882844923,0.4671382768649608
1745104046679607000,2.93760693359375,0.7091073967110365,0.31746435968279835,0.22147886939989403
1745104046689563400,2.9475634765625,0.716794517147541,0.30935470298528667,-0.04900843412317335
1745104046699519200,2.957519287109375,0.6459791056901216,0.28469080184996126,-0.31399412628896534
1745104046709474000,2.96747412109375,0.4828215106219053,0.21137539027035235,-0.5252460363101213
1745104046719430100,2.97743017578125,0.2487385409157723,0.1110433769494295,-0.6632090574324131
1745104046729386000,2.987385986328125,-0.023340032120421527,-0.033848493587970735,-0.6858993204072117
1745104046739341300,2.99734130859375,-0.31466866454966363,-0.16440087312757967,-0.5995347499012946
1745104046749297200,3.007297119140625,-0.5309177252709866,-0.226997322294116,-0.4198066899128258
1745104046759253200,3.017253173828125,-0.642712797370553,-0.24462591796517372,-0.16736423471150919
1745104046769209000,3.027208984375,-0.7009341732580214,-0.2654360662817955,0.06888665361823514
1745104046779164200,3.0371640625,-0.6603981647301465,-0.25320202313065526,0.31280049605760724
1745104046789120300,3.047120361328125,-0.5258002361267805,-0.2106763020902872,0.49554487165994937
1745104046799076000,3.057076171875,-0.2888923451930284,-0.0805137986510992,0.5719773558141663
1745104046809032200,3.0670322265625,-0.0031317952197045086,0.05874561895728111,0.5457677230741829
1745104046818987000,3.076987060546875,0.2709317410886288,0.16780454409122467,0.44958077366873617
1745104046828943400,3.086943359375,0.4965413353513926,0.2642705296337604,0.25903186179529875
1745104046838899200,3.096899169921875,0.685755235761404,0.29302491495311256,0.0391440244465135
1745104046848854000,3.10685400390625,0.7775531564276665,0.32433132284283633,-0.18521997193563727
1745104046858810000,3.11681005859375,0.7867962741345167,0.33336803125739095,-0.3840359960906207
1745104046868766000,3.126765869140625,0.6541939763277769,0.295952200576663,-0.5116959421243519
1745104046878722300,3.136722412109375,0.42932190255932506,0.17715864789187907,-0.5623949596829712
1745104046888677000,3.146677001953125,0.13613748619556426,0.04456161078214645,-0.5087622998252511
1745104046898633200,3.15663330078125,-0.15670681149363516,-0.07624737337827682,-0.4001001554565504
1745104046908589000,3.166589111328125,-0.41159116168804466,-0.16560907987356185,-0.20156051882384343
1745104046918545200,3.176545166015625,-0.6147563574958592,-0.23226737165153025,0.007101228573638946
1745104046928500200,3.186500244140625,-0.7338584646731615,-0.2721557299256325,0.18679582468392325
1745104046938456000,3.1964560546875,-0.7359673465859145,-0.29990532211661336,0.35820875026434656
1745104046948412200,3.206412109375,-0.6523491521786898,-0.26679566419720646,0.45542058573812244
1745104046958368000,3.216367919921875,-0.46867608089148993,-0.17235212439298628,0.4506863237578422
1745104046968323300,3.2263232421875,-0.15274667569100855,-0.034356443110108374,0.36914241487402466
1745104046978279200,3.236279052734375,0.1295130996197462,0.114315530487895,0.2002127940093167
1745104046988235300,3.2462353515625,0.3972930256139487,0.19114158053696154,0.03344340165210888
1745104046998190000,3.256190185546875,0.6082574969958514,0.24873043067455292,-0.1500483217188157
1745104047008146000,3.26614599609375,0.766153883600235,0.3220341518163681,-0.32888752484247086
1745104047018102300,3.276102294921875,0.8222446041345596,0.3404056748092174,-0.44728710977360603
1745104047028058000,3.28605810546875,0.7687894928008318,0.32379999244511126,-0.4760530759328976
1745104047038013200,3.29601318359375,0.5936760139357298,0.24971768814623355,-0.42500272418595847
1745104047047969000,3.305968994140625,0.3298684987038374,0.12889584450423716,-0.3297626271765679
1745104047057925000,3.315925048828125,0.02106843392662704,0.023404256463050842,-0.1607550822374411
1745104047067881200,3.325881103515625,-0.2654261294096708,-0.07822013475596905,0.027037589730415493
1745104047077836300,3.335836181640625,-0.5074503404438495,-0.1849924102574587,0.18634565149731933
1745104047087792000,3.345792236328125,-0.7113513762455433,-0.27616847269833084,0.33206980814039705
1745104047097748000,3.355748046875,-0.8019763076096773,-0.3258312060117721,0.38702195309884846
1745104047107703300,3.365703369140625,-0.7642565255463123,-0.324800109398365,0.3841674039179459
1745104047117659100,3.3756591796875,-0.5978554185122251,-0.22228549134135245,0.3056211424801498
1745104047127615200,3.385615234375,-0.35936924541108306,-0.09861585705280303,0.17208373751407488
1745104047137571000,3.395571044921875,-0.06926759749352931,0.007779986351728439,0.00003085179599002003
1745104047147526100,3.405526123046875,0.2304326305050403,0.10835340721309185,-0.17182050173431634
1745104047157482200,3.415482177734375,0.49618594604246313,0.2172334686487913,-0.33338348455484956
1745104047167438300,3.425438232421875,0.7236140609692782,0.30065058752596374,-0.4303745899500325
1745104047177394200,3.435394287109375,0.8221983538400381,0.357120662766695,-0.4667126353314146
1745104047187349000,3.445348876953125,0.8067641264081001,0.3718745797842741,-0.40643472877293824
1745104047197305000,3.45530517578125,0.6970914532899856,0.303708806052804,-0.28821006201729177
1745104047207261200,3.46526123046875,0.5013122030150144,0.20310849718451499,-0.12083521458022296
1745104047217217300,3.47521728515625,0.20688560457043348,0.08590952021479606,0.0418086040132679
1745104047227172000,3.485172119140625,-0.0712596480935812,-0.01352642104923725,0.21182627584300934
1745104047237128200,3.495128173828125,-0.3612987521689385,-0.13638766156435012,0.34456498644575473
1745104047247084000,3.505083984375,-0.5909925470054149,-0.2303659219443798,0.4170239638591185
1745104047257039000,3.5150390625,-0.729810723652318,-0.2988923456817865,0.38315292964577674
1745104047266995200,3.5249951171875,-0.7493973945885897,-0.3062333560943603,0.2934934823129326
1745104047276951000,3.534950927734375,-0.6739373721957206,-0.26817455133497714,0.17124683003220706
1745104047286907100,3.5449072265625,-0.47842247194536025,-0.18334756565988064,-0.03649044119780883
1745104047296862200,3.5548623046875,-0.231105926656723,-0.08476561087667941,-0.2250581891913898
1745104047306818300,3.564818359375,0.04235379853956401,0.01536123526096344,-0.3864543823439628
1745104047316774100,3.574774169921875,0.30856318728141485,0.1244371115297079,-0.4604348702361807
1745104047326730200,3.584730224609375,0.5378367108792066,0.22694880697727202,-0.480651180845499
1745104047336685000,3.59468505859375,0.7082954958062618,0.31166531801521774,-0.4365747232317924
1745104047346641200,3.60464111328125,0.7644785707991569,0.32835692509710784,-0.29722514312192794
1745104047356597200,3.61459716796875,0.6953285352706908,0.2817407198727131,-0.14420827218741178
1745104047366552000,3.624552001953125,0.5253021504115313,0.23008067526221274,0.057958962091617286
1745104047376508200,3.634508056640625,0.3318460093218833,0.154139006832242,0.23671713586831464
1745104047386464000,3.644464111328125,0.12097842244319618,0.0685316844344139,0.4038853365510702
1745104047396420400,3.65442041015625,-0.15254801131375134,-0.010469371566176415,0.47448184456080195
1745104047406375200,3.664375244140625,-0.3817822988796979,-0.1493997033506632,0.44688444725684817
1745104047416331000,3.6743310546875,-0.5564578247189521,-0.23703414766192435,0.3502583027165383
1745104047426287000,3.684287109375,-0.6367034008879214,-0.25545827762484546,0.20536098881904036
1745104047436243000,3.694242919921875,-0.6090391488928347,-0.2297077502965927,0.029071177917253225
1745104047446198300,3.7041982421875,-0.5083597834389656,-0.19639584780335426,-0.21839317834423855
1745104047456154000,3.714154052734375,-0.34168519322574137,-0.1637853715777397,-0.39816213659867644
1745104047466110200,3.724110107421875,-0.12849142842181027,-0.06431318995654582,-0.5079416676247492
1745104047476066000,3.734066162109375,0.10068798715174197,0.04012684320509433,-0.5487501729510724
1745104047486021000,3.744021240234375,0.3420984502017498,0.15361469069719313,-0.5202917749036103
1745104047495977200,3.753977294921875,0.523064600617811,0.2369528991192579,-0.40508609064295886
1745104047505933000,3.76393310546875,0.6205067377161234,0.2922691281497478,-0.186641857964918
1745104047515888000,3.77388818359375,0.6195517020136118,0.2754524333834648,0.037323293559066946
1745104047525844200,3.78384423828125,0.5811170496791601,0.24264146614968776,0.21184492574455216
1745104047535800300,3.79380029296875,0.45785891880095003,0.20514730953574178,0.391908446498774
1745104047545756200,3.803756103515625,0.2755078898977488,0.16467793650329113,0.5293641756860539
1745104047555711200,3.813711181640625,0.04905892220139503,0.07552548884451389,0.5681449745770544
1745104047565667000,3.8236669921875,-0.1774794773440808,-0.06571078179478645,0.46627559562101956
1745104047575623200,3.833623046875,-0.3608165946751833,-0.15109014065563678,0.2980622150005773
1745104047585579300,3.843579345703125,-0.4938830759275704,-0.19123627308309077,0.0941262540159747
1745104047595534000,3.8535341796875,-0.5568243199437857,-0.21160686093866823,-0.11032784909121691
1745104047605490200,3.863490234375,-0.5322206245630979,-0.20777298186421392,-0.364642655769363
1745104047615446000,3.873446044921875,-0.438495973617956,-0.19384207166731357,-0.5278367834556847
1745104047625401300,3.8834013671875,-0.2823397817444056,-0.13680559471547601,-0.6077796503510325
1745104047635357200,3.893357177734375,-0.10761690963208674,-0.0439057772219181,-0.6035390536392107
1745104047645313300,3.903313232421875,0.11223755517005919,0.05395020137429237,-0.5231272175252437
1745104047655269000,3.91326904296875,0.31580431751608845,0.14669570508897303,-0.3425523314490914
1745104047665224200,3.92322412109375,0.46644846796989436,0.22328794638216495,-0.09405481448126957
1745104047675180500,3.9331806640625,0.5398509733110666,0.24212767140865324,0.14870530961202458
1745104047685136600,3.94313671875,0.5834381861031055,0.25127368541657924,0.3558365412402898
1745104047695092500,3.953092529296875,0.505408532417938,0.2512146487057209,0.5290296830346808
1745104047705047600,3.963047607421875,0.4045464308083057,0.21446458845734595,0.6122925977308302
1745104047715003400,3.97300341796875,0.2401858896911144,0.146762925106287,0.5782795977635309
1745104047724959500,3.98295947265625,0.04361125125475228,0.041430911540985105,0.4491938932429999
1745104047734915600,3.99291552734375,-0.14226678273081778,-0.07516133170723914,0.24149101747293023
1745104047744870400,4.002870361328125,-0.29634733737409114,-0.13761983370780945,0.015323442267533391
1745104047754826500,4.012826416015625,-0.41683366545140743,-0.15657821667790411,-0.22915243623508139
1745104047764782300,4.0227822265625,-0.46760530985482035,-0.1951741970539093,-0.4751057486128062
1745104047774737700,4.032737548828125,-0.4615233595926314,-0.20210721118748187,-0.6286623524472117
1745104047784693500,4.042693603515625,-0.41958267189860343,-0.17603110516667364,-0.6625426294129342
1745104047794649600,4.052649658203125,-0.26371231122910976,-0.12196224584877491,-0.6022511327205226
1745104047804605400,4.06260546875,-0.0906009659666568,-0.045050271081924435,-0.49795653591156
1745104047814560500,4.072560546875,0.1044300962895155,0.058414195045828815,-0.2746567346948199
1745104047824516600,4.0825166015625,0.2540495798707008,0.15114391666948795,-0.02531873004855588
1745104047834472400,4.092472412109375,0.4038333871681243,0.2068330706655979,0.24221626300755886
1745104047844428500,4.102428466796875,0.48817814228422934,0.23039047186374664,0.438582263661921
1745104047854383400,4.11238330078125,0.518423642944172,0.25041034658551214,0.5738995195157826
1745104047864339700,4.122339599609375,0.4974678025465458,0.23431261374354362,0.6283151464447378
1745104047874295600,4.132295654296875,0.3982726843010634,0.2061930191963911,0.5610159264147281
1745104047884250600,4.142250732421875,0.2429144378721714,0.13243044837117193,0.3859608997385949
1745104047894206500,4.15220654296875,0.06712298668026924,0.025168343526124952,0.1560876384156756
1745104047904162600,4.16216259765625,-0.1156143381267786,-0.054797758114337916,-0.07275712010972202
1745104047914118700,4.17211865234375,-0.26647819574587045,-0.12121055069863795,-0.32441227912455795
1745104047924073500,4.182073486328125,-0.38197855210416015,-0.15909633697867392,-0.5429669133745133
1745104047934029600,4.192029541015625,-0.4368897805303335,-0.18192367033660412,-0.6583541647471487
1745104047943985400,4.2019853515625,-0.4490718742985278,-0.19566461091935633,-0.6500165445126592
1745104047953941500,4.21194140625,-0.3957891969222575,-0.15756138249635696,-0.5766661346849054
1745104047963896600,4.221896484375,-0.2532693162132054,-0.11704817032217979,-0.41031062035821375
1745104047973852700,4.231852783203125,-0.09758417591750622,-0.03718377549052238,-0.18829901405479757
1745104047983808500,4.24180859375,0.06266885681562126,0.0631727877497673,0.07973455790691077
1745104047993764600,4.2517646484375,0.2267582528412342,0.1296656598329544,0.3250774650350213
1745104048003719700,4.2617197265625,0.35751470358557996,0.18530980564355848,0.48183355903048064
1745104048013675500,4.271675537109375,0.4457102889109403,0.23292846590876579,0.5754306746058165
1745104048023631600,4.281631591796875,0.4680998153734952,0.2447100891172886,0.5864187362838537
1745104048033586400,4.29158642578125,0.4798158990651369,0.22796236793398855,0.4994058579370379
1745104048043542500,4.30154248046875,0.41664070016257465,0.2000543703109026,0.30754648451954125
1745104048053498600,4.31149853515625,0.26730529421977695,0.13677753766477108,0.08069120104461908
1745104048063454700,4.321454833984375,0.11359013882279395,0.04863631287515163,-0.18470893540726974
1745104048073409500,4.331409423828125,-0.05873224801905453,-0.03290273717045784,-0.3871600098626688
1745104048083365400,4.341365478515625,-0.2271545586824417,-0.08760463369488716,-0.5441202115954831
1745104048093321500,4.351321533203125,-0.3514682630281895,-0.15883914734721183,-0.6423607690624892
1745104048103277600,4.361277587890625,-0.4375479521781206,-0.1717506513684988,-0.6107305725784972
1745104048113232600,4.371232666015625,-0.4650175583839416,-0.19500585474967955,-0.5107727628648281
1745104048123188500,4.3811884765625,-0.4134316749881953,-0.15633622461557387,-0.3242655641302466
1745104048133144600,4.39114453125,-0.2982690992169082,-0.11699380978643893,-0.0932597916460596
1745104048143100400,4.401100341796875,-0.15935411113202572,-0.049779053169488906,0.13321173494197427
1745104048153055500,4.411055419921875,0.02893449112661183,0.043778351449966425,0.33699871590994296
1745104048163011600,4.421011474609375,0.213774925692752,0.12038812839984893,0.4817721842320636
1745104048172967400,4.430967529296875,0.3603162439376116,0.1809358283430338,0.5384975128754973
1745104048182922500,4.440922607421875,0.4624433239817619,0.23358722207844257,0.5258610264033079
1745104048192878600,4.450878662109375,0.5191092140555381,0.2512251700997352,0.40903263631165027
1745104048202834700,4.460834716796875,0.5080728562563658,0.2241226436406374,0.20059165552537886
1745104048212790500,4.47079052734375,0.4281337156880647,0.19077450079023836,-0.0028976211376488207
1745104048222745300,4.480745361328125,0.2947855679500848,0.1341530343800783,-0.2366080494706519
1745104048232701400,4.490701416015625,0.12567812456674873,0.0521972202271223,-0.4165318329606205
1745104048242657500,4.500657470703125,-0.0639214872252196,-0.038864860445261,-0.5437631417861208
1745104048252613600,4.510613525390625,-0.2511053431123495,-0.11131167249679565,-0.5744077612988651
1745104048262568400,4.520568359375,-0.3877489521991461,-0.1668704781115055,-0.5173785908706486
1745104048272524500,4.530524658203125,-0.46432599592320617,-0.19175942017436026,-0.38212073705382643
1745104048282480400,4.54048046875,-0.4774561111312359,-0.19585750314295292,-0.19900718107922002
1745104048292435700,4.550435791015625,-0.42626543759815394,-0.16285247464179992,0.013109456012491137
1745104048302391600,4.5603916015625,-0.3115588619660586,-0.11612170312702655,0.20971206016801297
1745104048312347600,4.57034765625,-0.16255086134672164,-0.04447977771759033,0.3626355537306517
1745104048322303500,4.580303466796875,0.009293898046016692,0.04769347906708717,0.4333401982899755
1745104048332258600,4.590258544921875,0.1948158851355314,0.11917875261008738,0.47941831458229567
1745104048342214700,4.600214599609375,0.3655331018030643,0.18560382015407084,0.4218510917546227
1745104048352170500,4.61017041015625,0.49202714586257934,0.23001637785434723,0.2736357028177008
1745104048362126600,4.620126708984375,0.5435065732091665,0.25809096421599387,0.08222962612565607
1745104048372081400,4.630081298828125,0.5292459926664829,0.2536760703831911,-0.10497399390786885
1745104048382037800,4.640037841796875,0.451992145659402,0.20153788686692714,-0.28229179615052413
1745104048391993600,4.64999365234375,0.3085294311422854,0.12922843745946883,-0.43254060887750234
1745104048401949700,4.65994970703125,0.11160283746309578,0.03488835802972316,-0.48833420962877566
1745104048411904500,4.669904541015625,-0.07921791362166404,-0.045185880160331725,-0.4520638226561248
1745104048421860400,4.6798603515625,-0.2648386118452996,-0.11511457191109657,-0.37991716259494424
1745104048431816700,4.689816650390625,-0.4296873748708516,-0.16065116520524025,-0.25191315236389633
1745104048441771500,4.699771484375,-0.5039608178276568,-0.19462533099949358,-0.0928617870381102
1745104048451727600,4.7097275390625,-0.5236275682628154,-0.19487901349961756,0.07946902057221158
1745104048461683500,4.719683349609375,-0.45340595798008143,-0.167872933152318,0.24681730879591776
1745104048471639600,4.7296396484375,-0.32775311398506163,-0.11531389387547969,0.33701880884990093
1745104048481594600,4.7395947265625,-0.14945530599541962,-0.02497720486819744,0.3849166513826698
1745104048491550500,4.749550537109375,0.07050327676832675,0.06425824489891528,0.3540023846156895
1745104048501506600,4.759506591796875,0.2718564547181129,0.14995266105830668,0.23999750924585386
1745104048511462400,4.76946240234375,0.44836803687810894,0.21991408603489399,0.1181857960499823
1745104048521417700,4.779417724609375,0.5593816032111645,0.232083247256279,-0.04804379034209996
1745104048531373600,4.78937353515625,0.6049807403475046,0.26051497649252414,-0.1859162471041083
1745104048541329700,4.79932958984375,0.5483703798532485,0.22873744395971296,-0.30400212644357233
1745104048551285500,4.809285400390625,0.4416174666393548,0.1797591857790947,-0.3928016690114513
1745104048561240300,4.819240234375,0.2571271606851369,0.11678864260315894,-0.3919223654262721
1745104048571196700,4.82919677734375,0.04335223499238491,0.02825754171311855,-0.3282356002723798
1745104048581152500,4.839152587890625,-0.15069149672687052,-0.07589666024446487,-0.23245282948734236
1745104048591107600,4.849107666015625,-0.34432080242633817,-0.14441256258785723,-0.12206366039663552
1745104048601063400,4.8590634765625,-0.4774474163681268,-0.185040341052413,0.048110023978725075
1745104048611019500,4.86901953125,-0.5450870473336428,-0.20854162814915178,0.16613202603543176
1745104048620975600,4.8789755859375,-0.5460667790859938,-0.2013046626329422,0.2476066690753214
1745104048630930400,4.888930419921875,-0.4237327773153782,-0.14662205533087252,0.2942917200185358
1745104048640886500,4.898886474609375,-0.2566559629768133,-0.09366378760337829,0.2765822411309928
1745104048650842400,4.90884228515625,-0.06194236917197704,0.014336568388342857,0.19712628096975385
1745104048660798500,4.918798583984375,0.16830314126312731,0.10144260491132735,0.1022827820625156
1745104048670753000,4.9287529296875,0.36440446309931573,0.18914193115234373,-0.020909973695594816
1745104048680709000,4.938709228515625,0.5092477452546358,0.230244341391325,-0.1713004233829677
1745104048690665000,4.9486650390625,0.5901964281916618,0.2440022331088781,-0.2572933110322803
1745104048700621000,4.95862109375,0.5864514695096761,0.25292086810171605,-0.31107458558045326
1745104048710576000,4.968576171875,0.5151029010236263,0.21710136670172214,-0.34350232565030453
1745104048720532000,4.978531982421875,0.37119302726089953,0.17072306188642977,-0.2836136924040504
1745104048730488000,4.988488037109375,0.1699987661998719,0.08124737362265587,-0.1773080297673121
1745104048740443000,4.99844287109375,-0.051772272813320155,-0.011867547926306723,-0.0681505213634111
1745104048750399200,5.008399169921875,-0.2471581398565322,-0.08611819452941417,0.07127199611850082
1745104048760355000,5.01835498046875,-0.3927349969834089,-0.16942951494455336,0.16529175755269823
1745104048770311200,5.028311279296875,-0.5190110143780708,-0.19204349781274793,0.21878948418544605
1745104048780266000,5.038265869140625,-0.5460305387288331,-0.1897586017459631,0.25348076700679956
1745104048790221800,5.048221923828125,-0.4788946925669908,-0.1894014588713646,0.2304687247317284
1745104048800178200,5.05817822265625,-0.356279535767436,-0.1365881525725126,0.15028054130580276
1745104048810134000,5.068134033203125,-0.19883622669279574,-0.0554956772506237,0.04785657894061878
1745104048820089000,5.078089111328125,0.03532382683753967,0.03148760967552662,-0.06167279498297721
1745104048830045000,5.088044921875,0.22368074509203434,0.12912497708499432,-0.18303548576971515
1745104048840001000,5.0980009765625,0.4070961883563548,0.21292028162479398,-0.26065149888638406
1745104048849956900,5.107956787109375,0.5340192714828997,0.2225625547170639,-0.30907274423874914
1745104048859912000,5.117911865234375,0.5849520977973938,0.25146540859639643,-0.3158527963003144
1745104048869868000,5.127867919921875,0.551763456357643,0.24907296050190925,-0.25350232125148175
1745104048879824000,5.137823974609375,0.4598305111348629,0.19074410565197467,-0.14554876354355364
1745104048889779200,5.147779296875,0.29794892735183237,0.14885668251514433,-0.03618957682140171
1745104048899735000,5.157735107421875,0.09804536368846893,0.04403554108142853,0.08828421345688402
1745104048909691100,5.167691162109375,-0.10354812582321464,-0.049721185502409934,0.17519556765798477
1745104048919647000,5.17764697265625,-0.29628179785721004,-0.11708499520123004,0.25529448363156987
1745104048929602000,5.18760205078125,-0.4319190063804388,-0.1604524277627468,0.2653909850310534
1745104048939558100,5.19755810546875,-0.49785022599287326,-0.177597039309144,0.21072286291206255
1745104048949514200,5.20751416015625,-0.5031459212481976,-0.19066461067497728,0.14382016791896893
1745104048959470000,5.217469970703125,-0.4412975870352238,-0.17817571597993373,0.03986119627254084
1745104048969425000,5.2274248046875,-0.281768776923418,-0.11118541576862334,-0.08839370171334594
1745104048979381000,5.237381103515625,-0.08763385978937148,-0.023763152903318405,-0.21591135319955645
1745104048989337000,5.247337158203125,0.10598141738474369,0.07746200986504555,-0.28933654529657216
1745104048999292200,5.257292236328125,0.278594165475294,0.1294347736865282,-0.32563608529847116
1745104049009248000,5.267248046875,0.43100006490461523,0.18195581904053687,-0.3432216820780188
1745104049019204000,5.2772041015625,0.49882681594006717,0.2171019512236118,-0.28191828666301444
1745104049029160000,5.287159912109375,0.536563549138233,0.23906302314102648,-0.15557002601604908
1745104049039115000,5.297114990234375,0.483934951756522,0.24009704236388205,-0.01479525367496535
1745104049049071000,5.307071044921875,0.36560141779892147,0.18362053738236425,0.09080202323039993
1745104049059027000,5.31702685546875,0.20390059741027652,0.10488543884158134,0.19901558358138427
1745104049068983000,5.326983154296875,0.030066125505045053,0.017424597531557083,0.2943609858624637
1745104049078938000,5.336938232421875,-0.17095460561998188,-0.06254734932780265,0.3104318306975066
1745104049088894200,5.346894287109375,-0.3165256905931979,-0.10287176093161106,0.27050036393404003
1745104049098850000,5.35685009765625,-0.4102641508679837,-0.15708149002492428,0.17856571994451806
1745104049108806100,5.36680615234375,-0.49209663090221584,-0.19207447747290132,0.08057519171582535
1745104049118761000,5.376760986328125,-0.4503688553065061,-0.19461071795225143,-0.07372791963694617
1745104049128717000,5.386717041015625,-0.33939043335206803,-0.14279519051909445,-0.21490213962439447
1745104049138673200,5.396673095703125,-0.18559629443474113,-0.05567570999264717,-0.32726912986040113
1745104049148628000,5.4066279296875,-0.0207569568246603,0.01921323451399803,-0.3609172420380637
1745104049158584000,5.416583984375,0.1818723054755479,0.09593056349158287,-0.3841610837750137
1745104049168540000,5.426539794921875,0.33256263315863904,0.14045944104790686,-0.33512671149298545
1745104049178496000,5.43649609375,0.43115963938049967,0.1990127523034811,-0.21455734477471558
1745104049188451000,5.446451171875,0.522046363485977,0.24275661696195602,-0.08250113654341548
1745104049198407000,5.456406982421875,0.5050725053966045,0.24642215373218057,0.08170220471806823
1745104049208363000,5.466363037109375,0.40447921079099175,0.20544950735270975,0.21124895087908951
1745104049218318800,5.47631884765625,0.30194939516484737,0.12629647566080093,0.3111482353385538
1745104049228274200,5.486274169921875,0.13973814103603363,0.06203823076188564,0.3615060747766867
1745104049238230000,5.49622998046875,-0.05582293644361198,-0.00018178630769252776,0.35255331831853837
1745104049248186000,5.50618603515625,-0.2088549318820238,-0.07318330963253974,0.26722528778612614
1745104049258142000,5.516141845703125,-0.3446294299840927,-0.11939444118738174,0.1358285663768649
1745104049268097000,5.526096923828125,-0.4248294134456664,-0.17127368150651454,-0.012378255661111325
1745104049278053000,5.53605322265625,-0.4485060571093112,-0.1874269439280033,-0.16753398352153598
1745104049288009000,5.546009033203125,-0.40128655222952364,-0.174622407412529,-0.32853838261123747
1745104049297965000,5.555965087890625,-0.2842190926849842,-0.10853285543322562,-0.42936618009246885
1745104049307920000,5.565919921875,-0.13604220912754536,-0.042187867388129234,-0.4505649989331141
1745104049317876200,5.575876220703125,0.029960838499665257,0.024684943923354147,-0.41818931784406305
1745104049327832000,5.58583203125,0.1965285342723131,0.0860299317240715,-0.29756443981258196
1745104049337787000,5.595786865234375,0.34220892483890053,0.15621873571574688,-0.17714482029592618
1745104049347743000,5.605742919921875,0.43306233119666576,0.20266952124536036,-0.011377298457641153
1745104049357698800,5.61569873046875,0.4697667987376451,0.23265257157683372,0.16978724234104156
1745104049367655000,5.625655029296875,0.4353033150564879,0.2148287455946207,0.2998232515900396
1745104049377610000,5.63560986328125,0.3603367022037506,0.16603052015602587,0.3901379662275314
1745104049387566000,5.645566162109375,0.2283089894145727,0.11576339120864867,0.4140616069221869
1745104049397522000,5.65552197265625,0.08924597116112709,0.07781623013019562,0.3720601654842496
1745104049407478000,5.66547802734375,-0.03619008827805519,-0.005566401955485344,0.2324857271099463
1745104049417433000,5.67543310546875,-0.20780805317759513,-0.06995850236713885,0.08693175766831264
1745104049427389200,5.68538916015625,-0.31494974651336666,-0.12046528528928756,-0.08993934198645874
1745104049437345000,5.695344970703125,-0.36347909188270566,-0.15935995635092257,-0.26889296527002005
1745104049447301000,5.705301025390625,-0.36588856417723,-0.15763035607933998,-0.4093644986145198
1745104049457256200,5.715256103515625,-0.31723340047113596,-0.1329723001629114,-0.48947556168362494
1745104049467212000,5.7252119140625,-0.23323000613860784,-0.09690846861302851,-0.4816564123652875
1745104049477168000,5.735168212890625,-0.10853577804267406,-0.02420505145192146,-0.39924708229117095
1745104049487123000,5.745123046875,0.044374563777446745,0.023268647384643553,-0.27241268209507685
1745104049497079000,5.7550791015625,0.19305420922525227,0.10372048671543597,-0.10419500889200717
1745104049507035100,5.76503515625,0.3068319795746356,0.15475801551342008,0.08026906664241105
1745104049516991200,5.7749912109375,0.3821528857577592,0.17725567852556703,0.249542824769672
1745104049526946000,5.784946044921875,0.41498489577956493,0.18965981754660605,0.36495869944859294
1745104049536902000,5.79490185546875,0.38730595767199993,0.18660042997598647,0.4417165065670386
1745104049546858000,5.80485791015625,0.3067698741238564,0.1468681390464306,0.4196323927918449
1745104049556814000,5.81481396484375,0.21694354579150676,0.12014905894696712,0.3433284303881228
1745104049566769200,5.82476904296875,0.07017126833498477,0.054558688661456106,0.19444292363729326
1745104049576725000,5.83472509765625,-0.03617839784026146,-0.015011106649041175,0.026459333184733987
1745104049586681000,5.84468115234375,-0.1660685140788555,-0.061469490963220595,-0.1485998216772452
1745104049596637000,5.854636962890625,-0.2807277434378862,-0.11952011339366435,-0.3242258897069841
1745104049606592000,5.864592041015625,-0.33189328252971173,-0.13678630549311638,-0.4481533712141216
1745104049616548000,5.874548095703125,-0.34099253478646274,-0.15024609104692935,-0.511752494617179
1745104049626504000,5.88450390625,-0.30485337297804654,-0.1120370641618967,-0.47464642400536683
1745104049636460000,5.8944599609375,-0.20773959105126558,-0.08338204756379126,-0.37646307661831374
1745104049646415000,5.9044150390625,-0.07824811874143779,-0.02391805120408535,-0.22692283228579907
1745104049656371200,5.91437109375,0.04135265867300331,0.030137948632240293,-0.05025626049349084
1745104049666327000,5.9243271484375,0.17807934293337166,0.10524258171617984,0.13623849888462572
1745104049676281900,5.93428173828125,0.28640118596442043,0.13942366825938224,0.2975083439774811
1745104049686237700,5.94423779296875,0.35558870395906267,0.16321254012584685,0.38415954940505326
1745104049696194000,5.954194091796875,0.3863437615763396,0.1718167023420334,0.43421544675454493
1745104049706150000,5.96414990234375,0.36054245390892026,0.19412848739326,0.38854499794766306
1745104049716105000,5.97410498046875,0.3109130383431911,0.15696867730021477,0.3112537415396422
1745104049726060800,5.984060791015625,0.22273097008652984,0.10138590628802775,0.12709274060502648
1745104049736016600,5.9940166015625,0.11796696566753088,0.05267828174233436,-0.05732988867415115
1745104049745973000,6.003972900390625,-0.03949197936765849,-0.018001520636677742,-0.21775621388126162
1745104049755927800,6.013927734375,-0.1629150184839964,-0.0802396578848362,-0.3463705745629966
1745104049765884000,6.0238837890625,-0.2672849820841104,-0.1265326225042343,-0.4536374286483973
1745104049775839700,6.03383984375,-0.335218043038249,-0.1467062264829874,-0.49029845890644935
1745104049785795800,6.0437958984375,-0.3188274647295475,-0.14929565845429896,-0.4429899240363389
1745104049795751000,6.0537509765625,-0.2685685921538621,-0.11068681859672069,-0.3036141500392929
1745104049805707000,6.06370703125,-0.2028606599032879,-0.04613981988430023,-0.1574339932570234
1745104049815662800,6.073662841796875,-0.1029395654708147,-0.021676994279026984,0.015943419063091276
1745104049825619000,6.083618896484375,0.03439261040203273,0.0228396083176136,0.17998115796670316
1745104049835574000,6.093573974609375,0.13448328924775121,0.08619593594074249,0.30833478535301984
1745104049845529900,6.10352978515625,0.29421324795484544,0.1288239483118057,0.3976422043778002
1745104049855486000,6.11348583984375,0.37232064305134116,0.19711890138089655,0.39328203640691933
1745104049865440800,6.123440673828125,0.39048458770811556,0.19438743059039115,0.3604069544283673
1745104049875396900,6.13339697265625,0.3907236571609974,0.17315818007886408,0.233531582901068
1745104049885353000,6.14335302734375,0.3251291952222585,0.139133160880208,0.07838179159108549
1745104049895309000,6.15330908203125,0.20908990968167782,0.08486439507603645,-0.09973647684687748
1745104049905263900,6.163263916015625,0.09792495217919349,0.03222819890975952,-0.2522477180805057
1745104049915219700,6.1732197265625,-0.030842297509312628,-0.014718845704197884,-0.3648138841504231
1745104049925175800,6.18317578125,-0.16108838757872582,-0.0641530309587717,-0.4245105202222243
1745104049935132000,6.1931318359375,-0.28223339876048265,-0.1100543659120798,-0.425555681893602
1745104049945087000,6.2030869140625,-0.3285398804485798,-0.15897417190372942,-0.3678944241069257
1745104049955042800,6.213042724609375,-0.35313590397946537,-0.1506400588005781,-0.2410526260556653
1745104049964999000,6.2229990234375,-0.30129940682351586,-0.11482815618515015,-0.08427625645715743
1745104049974954800,6.232954833984375,-0.20503793087713418,-0.07608955246806144,0.08142315031467005
1745104049984909800,6.242909912109375,-0.09561901332437991,-0.012618074032664298,0.2105477620734833
1745104049994866000,6.252865966796875,0.04926876555979252,0.04723170677423477,0.2723509054378606
1745104050004821800,6.26282177734375,0.19728490559756753,0.08053834857046603,0.3355665642149746
1745104050014777900,6.27277783203125,0.2883873182803392,0.16884207044541835,0.3393029742643237
1745104050024733000,6.28273291015625,0.3997557624656707,0.19911855076551435,0.27049168743724
1745104050034689000,6.29268896484375,0.42955878005512055,0.1869213324934244,0.12687171826548874
1745104050044644900,6.302644775390625,0.3825701613217592,0.1699678596049547,-0.025455672567524016
1745104050054599700,6.312599609375,0.3172006672453135,0.1367722769677639,-0.15512204478653147
1745104050064555800,6.3225556640625,0.2314373505681753,0.09616729485690594,-0.2506707876199856
1745104050074512000,6.332511962890625,0.07327858670055866,0.04415595259070396,-0.35620694545526055
1745104050084468000,6.342468017578125,-0.07401566880345344,-0.03383972575962543,-0.3689482440087944
1745104050094422800,6.3524228515625,-0.1942407155960798,-0.10860065997242926,-0.3356433557782322
1745104050104379000,6.36237890625,-0.33404965684600174,-0.13130524373352526,-0.24513379442207514
1745104050114334700,6.372334716796875,-0.37354105169177054,-0.15371055228710173,-0.1527167372104712
1745104050124290800,6.382290771484375,-0.35855624852776524,-0.13871756581664085,-0.008629132260661572
1745104050134246000,6.392245849609375,-0.32717611781470474,-0.12077508189082145,0.1141923242333345
1745104050144201700,6.40220166015625,-0.2323392678439617,-0.07356792503595352,0.20419552523624152
1745104050154157800,6.41215771484375,-0.09645071490816771,-0.025887305450439452,0.2576443529596552
1745104050164113700,6.42211376953125,0.08504040923006832,0.06321370428204535,0.276005975612998
1745104050174069000,6.432069091796875,0.23783026647567748,0.1290332071483135,0.25853359341695903
1745104050184024800,6.44202490234375,0.35206520600803193,0.17795768931508063,0.1486194762257859
1745104050193981000,6.45198095703125,0.42220951327085493,0.2144406230598688,0.026566154560074207
1745104050203936800,6.461936767578125,0.46987025911211966,0.19423077872395514,-0.06086878512371331
1745104050213892000,6.47189208984375,0.4171381282906979,0.19380700035393236,-0.1654512041644193
1745104050223848000,6.481847900390625,0.3062864745210856,0.13880875123143196,-0.26557445183917877
1745104050233803800,6.4918037109375,0.1629319696187973,0.041591655060648915,-0.3176408852934837
1745104050243759900,6.501759765625,-0.022215850396081805,-0.0060427872955799095,-0.2967810891488567
1745104050253714700,6.511714599609375,-0.15893902752511202,-0.059570963865518564,-0.21115570137137546
1745104050263671000,6.521671142578125,-0.2716589593846351,-0.1206289514183998,-0.16692067392878232
1745104050273627000,6.531626953125,-0.36870237948894496,-0.14681728564202784,-0.07621694170739501
1745104050283582000,6.54158203125,-0.3966290087472647,-0.15382862570881842,0.04512143662199378
1745104050293537800,6.551537841796875,-0.35026078693456947,-0.12897241687178612,0.17721488985745235
1745104050303494000,6.561493896484375,-0.25910569421648977,-0.07967442521750927,0.19958587601631878
1745104050313450000,6.571449951171875,-0.11852123854942619,-0.012543255230784416,0.21150292564015835
1745104050323404800,6.58140478515625,0.021679916888475415,0.04155716826915741,0.1840036184158176
1745104050333361000,6.59136083984375,0.16266659668087957,0.08689034794569014,0.12670964130526408
1745104050343316700,6.601316650390625,0.31262919461131095,0.13540741835534573,0.05795744598796591
1745104050353272800,6.61127294921875,0.39665304720997807,0.18688859926760196,-0.04205461466358974
1745104050363228000,6.621227783203125,0.43471360553503036,0.2023193926334381,-0.11649249093448742
1745104050373184000,6.63118408203125,0.4368360045164823,0.17077625337839125,-0.1808417751177214
1745104050383139800,6.641139892578125,0.3510813826024532,0.15933189930021763,-0.23232220711130647
1745104050393096000,6.651095947265625,0.2571276721417904,0.09516367077231407,-0.258288897940889
1745104050403051000,6.661051025390625,0.10917517192475497,0.05076631064116954,-0.1869364021983929
1745104050413006800,6.6710068359375,-0.04813362405002117,-0.0041810850769281385,-0.11764651980781927
1745104050422963000,6.680962890625,-0.2217032344739884,-0.07398410462141036,-0.05887898127967491
1745104050432917800,6.690917724609375,-0.3303413769125938,-0.14364800795614718,0.013054456155933439
1745104050442873900,6.700873779296875,-0.38557116976864636,-0.1587836177676916,0.08447994406940415
1745104050452830000,6.710829833984375,-0.4088169477343559,-0.1535603301614523,0.17005035025663673
1745104050462786000,6.7207861328125,-0.31751353258676823,-0.11968261047899723,0.15367339861448853
1745104050472740900,6.730740966796875,-0.21187632552981375,-0.07392097625732422,0.12497359302658587
1745104050482696700,6.74069677734375,-0.09872932736463844,0.0040378772139549254,0.10895365639487281
1745104050492652800,6.75065283203125,0.04747070316188037,0.057250411963462824,0.054665893629286436
1745104050502609000,6.76060888671875,0.20079547100178896,0.0883522371917963,-0.050919948566611854
1745104050512564000,6.77056396484375,0.34064584024064243,0.15370996776521206,-0.15424984679557383
1745104050522519800,6.780519775390625,0.4233493309557438,0.2018523596435785,-0.17065048984056339
1745104050532476000,6.790475830078125,0.4517289646785706,0.21781448340713977,-0.1789890781894326
1745104050542431700,6.800431640625,0.4262940791707486,0.19621347697377203,-0.20510564408479257
1745104050552386800,6.81038671875,0.31841245418787,0.1375865159600973,-0.204515240443591
1745104050562343000,6.820343017578125,0.1913965051461011,0.0776116474688053,-0.11167327235080302
1745104050572298800,6.830298828125,0.05888707325458526,0.034600773259997365,0.0031337314484640956
1745104050582254800,6.8402548828125,-0.11897709255814552,-0.01326455524265766,0.016126283083017914
1745104050592210000,6.8502099609375,-0.24465112547166645,-0.09614975920021533,0.0719573297678493
1745104050602166000,6.860166015625,-0.3394348570156842,-0.12543313682973384,0.14213236096249893
1745104050612121900,6.870121826171875,-0.3685053956121206,-0.13138766131997107,0.18353278603367507
1745104050622076700,6.88007666015625,-0.3432867832034826,-0.14440204119384287,0.11093145927386358
1745104050632032800,6.89003271484375,-0.2883937480211258,-0.10527473042011261,0.06594493761053309
1745104050641988900,6.89998876953125,-0.17447510789632797,-0.04994681095182895,0.014322740792389958
1745104050651945000,6.909945068359375,-0.04146656737625599,-0.0013707038313150405,-0.08199106812942773
1745104050661899800,6.919899658203125,0.10698745262213051,0.06340250485241412,-0.16273624611729756
1745104050671856600,6.929856689453125,0.2516724024105817,0.11293079813122749,-0.20271526008322835
1745104050681812500,6.9398125,0.3568593814820051,0.15619360127449033,-0.2167588003417477
1745104050691768600,6.9497685546875,0.4119359565377235,0.19017302776575087,-0.17628670562924817
1745104050701723600,6.9597236328125,0.4336918612718582,0.18137305071651935,-0.15512290330305695
1745104050711679700,6.9696796875,0.37738779024779795,0.16468611980974673,-0.10149340351680293
1745104050721635600,6.979635498046875,0.27872524450905617,0.13466039938032626,-0.006847527807205915
1745104050731591700,6.989591796875,0.16229367171525955,0.08265431781113147,0.0978028236368671
1745104050741546800,6.999546630859375,-0.010598477838560938,0.010813070437312125,0.13262584307910874
1745104050751502600,7.009502685546875,-0.16699790388345717,-0.04175707475543022,0.14234362909300252
1745104050761458700,7.019458740234375,-0.27495325168967244,-0.10104629907011985,0.16003338036676867
1745104050771414500,7.02941455078125,-0.34239662943072613,-0.132040572270751,0.14071922449525445
1745104050781369600,7.03936962890625,-0.35629064168334007,-0.13839549425542355,0.06841876211185008
1745104050791325700,7.04932568359375,-0.31026122337095435,-0.10503390740156172,-0.02305860309684649
1745104050801281800,7.05928173828125,-0.2358293749820441,-0.07130524080097675,-0.1040659208859317
1745104050811236600,7.069236572265625,-0.13125022561065852,-0.035491584619879724,-0.1429515135919675
1745104050821192400,7.0791923828125,-0.000744096365571022,0.00580839401781559,-0.21404128501135855
1745104050831148500,7.0891484375,0.11609941822998225,0.08068097191154956,-0.2612684069420211
1745104050841104400,7.0991044921875,0.23930969137847422,0.12669102793633938,-0.20908134278273208
1745104050851059700,7.109059814453125,0.3388035003095865,0.1583575013101101,-0.17450972255198283
1745104050861015600,7.119015625,0.3695429950315505,0.17972937516272067,-0.12132418540725484
1745104050870971600,7.1289716796875,0.3732593852061778,0.1624047308743,-0.023336908581573515
1745104050880927500,7.138927490234375,0.3232500304121524,0.13948971923291684,0.07969660051669925
1745104050890882800,7.1488828125,0.2282488567251712,0.1222504151403904,0.18460746606048195
1745104050900838700,7.158838623046875,0.10065934557914734,0.057923196658492083,0.2016652761062607
1745104050910794500,7.16879443359375,-0.025084099308773873,-0.01515256094634533,0.17085277094701304
1745104050920750600,7.17875048828125,-0.15310959071926772,-0.0679267042785883,0.17866607504645363
1745104050930705700,7.18870556640625,-0.2522018331121653,-0.0744791946619749,0.10969974378813058
1745104050940661800,7.198661865234375,-0.27603454412035644,-0.10308920307457446,0.012629636606294662
1745104050950617600,7.20861767578125,-0.2921094806086272,-0.11424889499247073,-0.10218872883720323
1745104050960573700,7.21857373046875,-0.28196861034445464,-0.0840256061643362,-0.16456545257214455
1745104050970528500,7.228528564453125,-0.1748859537195414,-0.07846212681829928,-0.22339420150192454
1745104050980484600,7.238484619140625,-0.07027348660044372,-0.040641806989908213,-0.2901455966571346
1745104050990440700,7.248440673828125,0.04163556726761162,0.02480243282318115,-0.2780126575266011
1745104051000396800,7.258396728515625,0.15704408062398434,0.09346446563899516,-0.22601837599305435
1745104051010351600,7.2683515625,0.25816929014921186,0.14524959793388842,-0.1263151438286528
1745104051020307500,7.278307373046875,0.3122983552217483,0.1349807173758745,-0.04875168288312852
1745104051030263600,7.288263671875,0.32152101466245947,0.1412339325517416,0.04292489469209686
1745104051040219600,7.2982197265625,0.3031225305974483,0.1414601425230503,0.1378312662350945
1745104051050174700,7.3081748046875,0.2596387051146477,0.1271516311854124,0.2051345231194049
1745104051060130600,7.318130615234375,0.17160912400595843,0.09503858308792114,0.2279156244491227
1745104051070086700,7.328086669921875,0.06227839619331062,0.04185761252045631,0.20535326217031105
1745104051080041700,7.338041748046875,-0.03602298808284104,-0.00033960721790790555,0.16933443880593405
1745104051089997600,7.34799755859375,-0.12263035436868668,-0.04167816430032253,0.09925994537631048
1745104051099953700,7.35795361328125,-0.20612404561340808,-0.07874678897857666,-0.03459633454689756
1745104051109909500,7.367909423828125,-0.24623985596783457,-0.0928442879140377,-0.1466283206748776
1745104051119864600,7.377864501953125,-0.25571020655930043,-0.11733750865757464,-0.22256386989131569
1745104051129820700,7.387820556640625,-0.23776998765580354,-0.10407529150247573,-0.2722407230616547
1745104051139776800,7.39777685546875,-0.14525310506522654,-0.05702127938270569,-0.3021250074600801
1745104051149732600,7.407732666015625,-0.04459609757363796,-0.016286533412337302,-0.27836996479798104
1745104051159687400,7.4176875,0.05562069186978042,0.029503157860040662,-0.20563602463444694
1745104051169643500,7.4276435546875,0.1507452727407217,0.07193418635427952,-0.11351795036941766
1745104051179599600,7.437599609375,0.2222399716991931,0.11218787080943583,-0.014432009853143244
1745104051189555700,7.4475556640625,0.2971247514873743,0.13888941525220871,0.09446644575577229
1745104051199510500,7.457510498046875,0.3143921856958419,0.161641929808259,0.19556120534380897
1745104051209466600,7.467466552734375,0.28750125616081057,0.1542781230419874,0.24362499729432163
1745104051219422500,7.47742236328125,0.2321394344229251,0.11231646562516688,0.25652369663296265
1745104051229378800,7.48737890625,0.1741775862544775,0.08458207100331783,0.2148957098836079
1745104051239333600,7.497333740234375,0.05962240179181098,0.04342354666292667,0.17901350024463608
1745104051249289500,7.50728955078125,-0.027926775388792156,0.0064794251471757885,0.0689609792297706
1745104051259245600,7.51724560546875,-0.1320662912338972,-0.04268529551625252,-0.06309926585583016
1745104051269201400,7.527201416015625,-0.19950667330026625,-0.09071955084502696,-0.18706039390424264
1745104051279156700,7.53715673828125,-0.2481079879272729,-0.11922785244882106,-0.2459953614211641
1745104051289112600,7.547112548828125,-0.2797176896125078,-0.10997019475996493,-0.3084892817949876
1745104051299068700,7.557068603515625,-0.23416772538013755,-0.08645838626921176,-0.3271143411574885
1745104051309024500,7.5670244140625,-0.17199673508405686,-0.04647533544898033,-0.2902892063789069
1745104051318979600,7.5769794921875,-0.08836977284848689,-0.006475918015837669,-0.19054450969295575
1745104051328935700,7.586935791015625,0.00652925563827157,0.01824468174278736,-0.07409514551414176
1745104051338891500,7.5968916015625,0.10218903936445713,0.05384498743414878,0.03447727474449202
1745104051348847600,7.60684765625,0.17823241460323333,0.09806114577949046,0.11552876046886668
1745104051358802400,7.616802490234375,0.28048341328799725,0.14535656543970107,0.21896107789268715
1745104051368758800,7.6267587890625,0.30759529209733005,0.15532383270263672,0.25292010091673583
1745104051378714600,7.636714599609375,0.3040892567377537,0.13233458678126334,0.25495441975593564
1745104051388670700,7.646670654296875,0.26135909916646777,0.10512801542580127,0.209277468143031
1745104051398625500,7.65662548828125,0.1833230157405138,0.09913491249084472,0.1415350343901664
1745104051408581600,7.66658154296875,0.10041859562583268,0.06348959861397743,0.02367461610333994
1745104051418537700,7.676537841796875,0.012067454412579537,0.029966099196672438,-0.09250380391329527
1745104051428493600,7.68649365234375,-0.07917290543615818,-0.017274959927797318,-0.18737554253432898
1745104051438448600,7.69644873046875,-0.15261398922204972,-0.07643734299242497,-0.2653251715195365
1745104051448404500,7.706404541015625,-0.19854345429129897,-0.08361877892911433,-0.3242221999125555
1745104051458360600,7.716360595703125,-0.21645715051405132,-0.08672375920712948,-0.3039530814037658
1745104051468316700,7.726316650390625,-0.21894494874179363,-0.07151508415937423,-0.25534042339883745
1745104051478271700,7.736271728515625,-0.1733271799702197,-0.07735153522789477,-0.17728026497755198
1745104051488227600,7.7462275390625,-0.1168423455517739,-0.03944529068171978,-0.05341720874244347
1745104051498183700,7.75618359375,0.0016957710672169924,0.005023381119966507,0.05282735309051349
1745104051508139500,7.766139404296875,0.08515205291099846,0.07548632587790488,0.1589287253268063
1745104051518094600,7.776094482421875,0.17391462446935474,0.11253858394324778,0.21721657231291755
1745104051528050700,7.78605078125,0.25676643761396406,0.11543196729719638,0.2488302012545988
1745104051538006500,7.796006591796875,0.2937872045625001,0.1399520760476589,0.23851017503123728
1745104051547962600,7.805962646484375,0.3087503073513508,0.12998130165338515,0.17355331687629222
1745104051557917700,7.815917724609375,0.2731605230540037,0.1287719258636236,0.09917056832611561
1745104051567873800,7.825873779296875,0.18240823898315428,0.0967091466486454,-0.018251148016192018
1745104051577829600,7.83582958984375,0.09919745633304118,0.050720717933773994,-0.13220383654106407
1745104051587784400,7.845784423828125,0.017273206362128257,0.001301145726442337,-0.20871267386712133
1745104051597740500,7.855740478515625,-0.0859380887221545,-0.03822597801983356,-0.26186259170919657
1745104051607696600,7.865696533203125,-0.16774375381469725,-0.05389058014154434,-0.2864368052670732
1745104051617652700,7.87565283203125,-0.21194829478748142,-0.068152914249897,-0.2727585729232989
1745104051627607600,7.885607666015625,-0.23606150323748587,-0.08638649007678031,-0.20788289024578407
1745104051637563600,7.895563720703125,-0.1904636082101613,-0.08299100241959094,-0.12335170917948707
1745104051647519500,7.90551953125,-0.17115677712857721,-0.04721884729266167,-0.020684841436520218
1745104051657475600,7.9154755859375,-0.09720825527720153,-0.03294599179029464,0.10049299430260435
1745104051667430700,7.9254306640625,0.005953428511694074,0.02621814484000206,0.16507528352411463
1745104051677385700,7.9353857421875,0.07944470811486244,0.06932780324816704,0.18896102162748574
1745104051687341600,7.945341552734375,0.17218436661064623,0.09625380409657955,0.20888817656449973
1745104051697298000,7.9552978515625,0.19896474844329057,0.08781330800950526,0.1817976145378314
1745104051707253800,7.965253662109375,0.2591827780406922,0.11836100648641586,0.11323606468811631
1745104051717208800,7.975208740234375,0.2499766313433647,0.12624328416883945,0.006386358302552252
1745104051727164700,7.98516455078125,0.23514913763292133,0.106812607511878,-0.04620429995525628
1745104051737120800,7.995120849609375,0.18908822820372878,0.10303484253883362,-0.15905222384231163
1745104051747075800,8.005075927734374,0.09151924985535442,0.06392506742179394,-0.20371212563347071
1745104051757031700,8.01503173828125,0.02322480824291706,-0.002847790646553039,-0.2451284423935227
1745104051766987800,8.02498779296875,-0.07635967464633285,-0.036057986330986024,-0.23916975318482145
1745104051776943600,8.034943603515625,-0.15139884127862752,-0.036440263646841047,-0.20148524336423723
1745104051786899700,8.044899658203125,-0.1721914539385587,-0.06460661994516849,-0.13780481661958618
1745104051796854800,8.054854736328124,-0.1938970167249441,-0.05497837537825107,-0.03070769307790324
1745104051806811000,8.064810791015624,-0.19538572091273962,-0.049453474476933476,0.01562770417742431
1745104051816766700,8.0747666015625,-0.14859299007765947,-0.04627425991892815,0.081683755745925
1745104051826721800,8.0847216796875,-0.07692651474885642,-0.022119477349519728,0.16372375931730493
1745104051836678000,8.094677978515625,-0.006276011529564857,0.025077742633223533,0.17054171397015452
1745104051846633700,8.1046337890625,0.11324176377654074,0.06342062503099441,0.14468869438180698
1745104051856589800,8.11458984375,0.17314590511918068,0.09901800811290741,0.1162803460211493
1745104051866545700,8.124545654296876,0.22225451168119906,0.1325970371097326,0.05073399754045531
1745104051876500700,8.134500732421875,0.2789793654005974,0.1247550914376974,-0.03693000165885314
1745104051886456800,8.144456787109375,0.29039288594909013,0.1210252572596073,-0.1245994807508774
1745104051896413000,8.154412841796875,0.24275544791817663,0.11781506304144859,-0.16137929681669919
1745104051906368800,8.16436865234375,0.18083529057800768,0.0684749858111143,-0.1867329337818548
1745104051916323800,8.17432373046875,0.10224281537830829,0.04633563471734523,-0.2082389006092213
1745104051926279700,8.18427978515625,0.01875489628724754,-0.0016524433821439742,-0.18878913565929978
1745104051936235800,8.19423583984375,-0.10217091918587684,-0.03325929552316666,-0.13126715847915038
1745104051946192000,8.20419189453125,-0.2151197644304484,-0.05143792629241943,-0.05983213555235415
1745104051956146700,8.214146728515624,-0.23685879109501837,-0.1069260047584772,0.004424830704927444
1745104051966102800,8.224102783203126,-0.27380473924167453,-0.09900690219700335,0.0583780094875954
1745104051976058600,8.23405859375,-0.235018716186285,-0.06855272722244263,0.12106184467663987
1745104051986014700,8.2440146484375,-0.14554193194396792,-0.05510229401886463,0.15352907650666311
1745104051995969800,8.2539697265625,-0.07085625492446124,0.005502689069509506,0.1307255806820467
1745104052005926000,8.26392578125,0.04680040268488228,0.038385552495718,0.0736305784760043
1745104052015881700,8.2738818359375,0.15453472815155983,0.0731593442350626,0.03295116115575656
1745104052025837800,8.283837890625,0.18667181471176444,0.11146072557866572,-0.014463044312223792
1745104052035793000,8.29379296875,0.26914544219374653,0.11342062747478485,-0.09679549149153753
1745104052045748700,8.303748779296875,0.3131148592364043,0.14459493341743945,-0.13470743512613698
1745104052055704800,8.313704833984374,0.2943448384452611,0.16162030249834058,-0.14703063613176345
1745104052065660700,8.32366064453125,0.23133505923748016,0.1307066933184862,-0.1490538673213683
1745104052075616000,8.333615966796875,0.16024558007903397,0.05517068307995796,-0.15058067502984776
1745104052085571800,8.34357177734375,0.06509827591963112,0.02828326067626476,-0.11684444617731496
1745104052095528000,8.35352783203125,-0.03434592171609401,0.010262450817227363,-0.03500862340852618
1745104052105483800,8.36348388671875,-0.09530695170052349,-0.009949147084355354,0.019727723374776542
1745104052115438600,8.3734384765625,-0.16382628811001776,-0.05100830270349979,0.05385839490499347
1745104052125395000,8.38339501953125,-0.22812552260644733,-0.08579963009953498,0.08391072934670374
1745104052135350800,8.393350830078125,-0.2121568960368633,-0.09475508997142314,0.10455883723571896
1745104052145307000,8.403306884765625,-0.1854839931666851,-0.0643061756938696,0.10392888703541829
1745104052155261700,8.41326171875,-0.13110248770304023,-0.029980127722024914,0.05944092601137235
1745104052165217800,8.4232177734375,-0.05303783576972782,-0.0038689503878355023,0.02143487435253337
1745104052175173600,8.433173583984376,0.038760815548896786,0.03331190249323845,-0.026821261832304297
1745104052185130000,8.4431298828125,0.11419285395629704,0.0722445674777031,-0.06773607707731426
1745104052195084800,8.453084716796875,0.21567695992179214,0.09683423433303832,-0.13389354319367558
1745104052205040600,8.46304052734375,0.2655032132338732,0.13013503091037273,-0.1707964011172764
1745104052214996700,8.472996826171874,0.27550620939731596,0.13837152885794637,-0.12714394106930121
1745104052224952600,8.48295263671875,0.242874105861783,0.12755144415795802,-0.12020882631018757
1745104052234908000,8.492907958984375,0.20290566808879373,0.07313654788136482,-0.12041008450333028
1745104052244863700,8.50286376953125,0.1073620580881834,0.05253682744503021,-0.055596890869084745
1745104052254819800,8.51281982421875,0.034606033957004546,0.05469780487120151,0.0320383754260838
1745104052264775700,8.522775634765624,-0.02586151342205703,0.02324818911850452,0.05883123314781114
1745104052274731800,8.532731689453126,-0.1298035339336842,-0.02891162170767784,0.06028897594176232
1745104052284686800,8.542686767578125,-0.20536307117827235,-0.08977730155885219,0.07338332571666688
1745104052294642700,8.552642578125,-0.22191673109419643,-0.09382394660115241,0.09199048409629612
1745104052304598800,8.562598876953125,-0.21951551517136395,-0.06144494104385376,0.07654275786196812
1745104052314554600,8.5725546875,-0.17628361862301825,-0.021267244434356687,0.009864683671295641
1745104052324510000,8.582510009765626,-0.08914134174287319,-0.02326572477519512,-0.03637611236944795
1745104052334465800,8.5924658203125,-0.016334537272527812,-0.005957447099685669,-0.07399818794569
1745104052344422000,8.602421875,0.0653033700376749,0.040329087778925896,-0.13265744379376992
1745104052354377700,8.612377685546875,0.16771927696056663,0.06407353598177433,-0.15694279394028707
1745104052364332800,8.622332763671874,0.25458975116200744,0.12032792264521121,-0.13874686497636138
1745104052374289000,8.632288818359376,0.2745996890116483,0.16720424011051654,-0.08425168827148154
1745104052384244700,8.64224462890625,0.2912117280513048,0.13634148433506488,-0.10318804207285866
1745104052394200800,8.652200927734375,0.2508241880834102,0.08371288695335388,-0.07453958307970315
1745104052404155600,8.66215576171875,0.19552549470961092,0.07702244940400123,0.037250009127147495
1745104052414111700,8.67211181640625,0.12158113757669925,0.09129355134069919,0.0841079872181639
1745104052424067800,8.68206787109375,0.005585106655955315,0.034358196675777435,0.08472328783860429
1745104052434024000,8.69202392578125,-0.08761398604512215,-0.04357552235424518,0.07076939862491563
1745104052443978800,8.701978759765625,-0.1745510957419872,-0.06901800664663314,0.1143142153136432
1745104052453934600,8.7119345703125,-0.22726744447238742,-0.06637129153013228,0.09638727601682767
1745104052463890700,8.721890625,-0.21426753151528535,-0.0838689542979002,0.005023545516747981
1745104052473846800,8.7318466796875,-0.21185352917611597,-0.07603811454176902,-0.0896325775922276
1745104052483801900,8.7418017578125,-0.18124379831366239,-0.06229308230578899,-0.10599018521308898
1745104052493757700,8.7517578125,-0.13035707616321743,-0.032816227930784224,-0.1431022289079614
1745104052503713800,8.7617138671875,-0.02635492296218872,-0.018072247785329818,-0.18297929860306902
1745104052513669600,8.771669677734375,0.06797288150787353,0.034738135904073715,-0.199434156053327
1745104052523625000,8.781625,0.1207294891834259,0.0761439130038023,-0.15497134773684665
1745104052533580800,8.791580810546876,0.10959836577288806,0.09046294573545455,-0.09584957067724317
1745104052543536600,8.80153662109375,0.09374686277694999,0.06315583661496639,-0.07949777174266055
1745104052553492700,8.81149267578125,0.1840291912484914,0.007052256599068641,-0.01723037186739966
1745104052563448600,8.821448486328125,0.21350312301404772,0.08216098133623599,0.07251481752013787
1745104052573404000,8.83140380859375,0.1752490879435092,0.1971779380917549,0.1497850676727481
1745104052583359700,8.84135986328125,0.24611001904308794,0.11087854177653789,0.12443623474687338
1745104052593315800,8.85131591796875,0.1874276015151292,0.03447685461938381,0.07361938122855499
1745104052603271700,8.861271728515625,0.11268880606889724,0.040375265008211134,0.06168165414286777
1745104052613227000,8.87122705078125,0.13039507008604703,0.06669862378835678,0.03557697961470112
1745104052623182800,8.881182861328124,0.0994710125774145,0.11210720678865908,0.002491104429680854
1745104052633139000,8.891138916015626,0.014870163808390497,0.043996378114819525,-0.0826541168817319
1745104052643094800,8.9010947265625,-0.17428864541351793,-0.0845569365620613,-0.08769757267534732
1745104052653049600,8.911049560546875,-0.25470066419057547,-0.16033143173158168,-0.028517873149737714
1745104052663006000,8.921005859375,-0.23385778264813123,-0.11038286721408366,-0.0949289852336049
1745104052672962000,8.930962158203124,-0.254736904547736,-0.005781506010890006,-0.14105477659255267
1745104052682918000,8.94091796875,-0.22041151416301727,-0.04264320994019508,-0.12130158998295663
1745104052692872700,8.950872802734375,-0.09053023881800472,-0.09621931730508804,-0.10937635705266147
1745104052702828800,8.960828857421875,-0.006464227578043938,-0.024146599262952803,-0.1556524070698768
1745104052712784600,8.97078466796875,0.17346322744004428,0.08507599200010299,-0.11382234014347195
1745104052722741000,8.980740966796875,0.2663718858271837,0.1982487821936607,0.026444080816674976
1745104052732696800,8.99069677734375,0.27302199136614796,0.2175117010682821,0.11458954338999465
1745104052742652000,9.00065185546875,0.2788053240079433,0.10324176328778266,0.0472241262559779
1745104052752607700,9.010607666015625,0.3120288906306028,0.035633038917183876,0.07863357439506799
1745104052762563800,9.020563720703125,0.28442542891204353,0.13271277244389057,0.15860950330980123
1745104052772520000,9.03052001953125,0.2651998463731259,0.21021745240688322,0.1623955063882284
1745104052782474800,9.040474853515626,0.1920399906814098,0.16193477527499198,0.03338728755069897
1745104052792430800,9.050430908203126,0.06960428210198878,-0.00609071809053421,-0.014964746756665408
1745104052802386700,9.06038671875,-0.11507248633503914,-0.10913900463283062,-0.010292827689182013
1745104052812342800,9.0703427734375,-0.1969774470835924,-0.09455050731003284,-0.1016345838194713
1745104052822297900,9.0802978515625,-0.14076514599621295,-0.03467559206187725,-0.19654126588972284
1745104052832254000,9.09025390625,-0.22380868232063947,0.00012684125006198882,-0.1847312385706231
1745104052842209800,9.100209716796876,-0.3528898933291435,-0.09177928903102875,-0.1396198484186083
1745104052852166000,9.110165771484375,-0.37212059043459594,-0.23331775748729705,-0.10464987652003764
1745104052862121700,9.120121826171875,-0.33215697496719654,-0.19328034613132475,-0.11676590104838833
1745104052872076800,9.130076904296875,-0.168695355451107,-0.020437807872891425,-0.07641631847070529
1745104052882033000,9.140032958984374,0.048994624793529507,0.12449088754355907,0.03420019310247153
1745104052891988700,9.14998876953125,0.11737374901473521,0.13789046734273433,0.07301021808795631
1745104052901944800,9.15994482421875,0.23109189813137054,0.04215396511852741,0.053699934673961246
1745104052911900000,9.16989990234375,0.37931846604943276,0.06693944680690765,0.07955943880202249
1745104052921856000,9.17985595703125,0.43165472942106425,0.2446089668303728,0.11426294178413227
1745104052931811800,9.189811767578124,0.460603760529682,0.3251204273939132,0.09783816894488409
1745104052941768000,9.199767822265626,0.3940009983312338,0.20849252831041812,0.036881888200808316
1745104052951722800,9.20972265625,0.20354571955800055,0.05435878217518329,-0.013801292467862367
1745104052961679000,9.21967919921875,0.05543130677752196,-0.05241232428252697,-0.03337762467321008
1745104052971635000,9.229635009765625,-0.04503865370936692,-0.021380641680955884,-0.07429748141951859
1745104052981590800,9.2395908203125,-0.1279758070498705,0.03252572055160999,-0.12853899389058351
1745104052991545900,9.2495458984375,-0.22490882558226585,-0.0198462717205286,-0.15349278135057537
1745104053001501700,9.259501708984375,-0.33825288068950177,-0.15789806710481644,-0.12893276071483267
1745104053011458000,9.2694580078125,-0.3573280949722975,-0.23382746057510376,-0.09900169629892333
1745104053021414000,9.279413818359375,-0.32063539093434806,-0.16382102741301058,-0.11569697490893303
1745104053031370000,9.289369873046875,-0.18850421777069568,-0.01691489444375038,-0.07815784664209932
1745104053041324800,9.29932470703125,-0.05855038864612579,0.06026712943613529,-0.011309932309854775
1745104053051281000,9.309281005859376,-0.017521555100008843,0.022395371681451795,0.03337457419959828
1745104053061236700,9.31923681640625,0.016624898521229624,-0.029834581771492955,0.01488030160991475
1745104053071193000,9.329193115234375,0.14638883109688758,0.003931494230031967,0.02293895877255127
1745104053081148000,9.33914794921875,0.2793336587309837,0.18971534712612628,0.08524301913008094
1745104053091103700,9.349103759765624,0.3665104954678565,0.26414836455881596,0.06226929957140237
1745104053101059800,9.359059814453126,0.39516441608741876,0.19514146382808684,0.005258176256529986
1745104053111015700,9.369015625,0.3506512475568801,0.09709434657394886,-0.04575546020921319
1745104053120971000,9.378970947265625,0.3008634265590459,0.06244447347521782,-0.04365914551708847
1745104053130926800,9.3889267578125,0.26055421252436933,0.1291208854317665,-0.06343238853402436
1745104053140883000,9.398883056640624,0.1958094992827624,0.16713702009320258,-0.06966803152058273
1745104053150838800,9.4088388671875,-0.005696092749759555,0.062469023394584655,-0.05454471493503078
1745104053160795000,9.418794921875,-0.2392745469998568,-0.11516074914038181,-0.043023039570637044
1745104053170750000,9.42875,-0.38776648785583673,-0.2632704126805067,-0.08012395908329635
1745104053180705800,9.438705810546875,-0.4085328700959682,-0.19847382312119005,-0.06809475432187319
1745104053190662000,9.448661865234374,-0.3887801949430257,-0.07287818920612335,-0.038869536620378495
1745104053200617700,9.45861767578125,-0.3183897308994084,-0.04507189839184284,-0.0025804084146395325
1745104053210573000,9.468572998046875,-0.25645254935920236,-0.1057324110597372,-0.032941480011958624
1745104053220529000,9.47852880859375,-0.16178871786780655,-0.12022563131451607,-0.027973135281167922
1745104053230485000,9.488485107421875,0.03339724268913269,-0.03496142326593399,-0.00501631205836311
1745104053240440800,9.49844091796875,0.22478074222318828,0.15184768102467058,-0.017566307557187973
1745104053250397000,9.50839697265625,0.4146802137445658,0.26647885333299637,-0.017675320889614522
1745104053260352000,9.51835205078125,0.511397616764903,0.2523082891613245,-0.0032335568274371325
1745104053270307800,9.528307861328125,0.4514724326342344,0.1713327182173729,-0.00894176014009863
1745104053280264000,9.538263916015625,0.45287645421326156,0.11796353160142897,0.00928308439105749
1745104053290219800,9.5482197265625,0.3719283557981252,0.17591069365739823,0.005872033838555216
1745104053300174800,9.5581748046875,0.21993695545382796,0.21103344496488569,-0.00607478986904025
1745104053310131000,9.568130859375,0.06112279641740024,0.05994681144058704,0.007641491196490824
1745104053320087000,9.578087158203125,-0.18617657854072747,-0.11817337495982647,-0.0069881601206026964
1745104053330043000,9.58804296875,-0.33621399527303875,-0.20904314793050288,-0.0400577234916389
1745104053339997700,9.597997802734374,-0.3658469169925898,-0.1643745696425438,-0.03704617538442835
1745104053349953800,9.607953857421874,-0.36289281642735,-0.06728782185316086,-0.05308594922777265
1745104053359910000,9.617909912109376,-0.33006957423388955,-0.07498597514033317,-0.07152111204136162
1745104053369866000,9.627865966796875,-0.3076584204614162,-0.14463994160294533,-0.11892658621361478
1745104053379821800,9.63782177734375,-0.22421624020822345,-0.1472071617424488,-0.09261573985517024
1745104053389777000,9.64777685546875,-0.030880949019268154,-0.022488310661911964,-0.0592998187739402
1745104053399732700,9.657732666015624,0.12416823146045207,0.13769582155346868,-0.0219376910418272
1745104053409688800,9.667688720703126,0.27163842805325983,0.1992734490662813,-0.005406425620801746
1745104053419645000,9.67764501953125,0.35645014309398826,0.15410218195319175,0.016438801364600658
1745104053429599700,9.687599853515625,0.39000053051821887,0.11650631853044033,0.014829064613021909
1745104053439555800,9.697555908203125,0.4076274456888437,0.14566168586611747,0.027684838125389067
1745104053449511700,9.70751171875,0.42622985482811926,0.21985388028025626,0.038912024055235084
1745104053459467800,9.7174677734375,0.36036592829823494,0.23528584268987177,0.03602971008457243
1745104053469423900,9.727423828125,0.21568390111923216,0.10319850866794586,0.03816195460660383
1745104053479379000,9.73737890625,0.01525127208046615,-0.0443459222048521,0.019660247629135846
1745104053489334800,9.747334716796875,-0.14580314016342164,-0.09945581500828266,-0.01743780407300219
1745104053499291000,9.757290771484374,-0.23580438667126,-0.07654664858579635,-0.02639591255970299
1745104053509246700,9.767246826171874,-0.31605390836298464,-0.06806406692266463,-0.04877802290078252
1745104053519201800,9.777201904296875,-0.40023558187186714,-0.12420973251461982,-0.07540153367128223
1745104053529158000,9.787157958984375,-0.44935755937211214,-0.21367665295004842,-0.10820775166470557
1745104053539113700,9.79711376953125,-0.36436814967691894,-0.21131109286248684,-0.11828434278732165
1745104053549069800,9.80706982421875,-0.22865444185137748,-0.08221008117496967,-0.11073712401185185
1745104053559025700,9.817025634765624,-0.022474209071323276,0.06207797825038433,-0.09931620560819282
1745104053568981000,9.82698095703125,0.14515322488732635,0.12518179241716862,-0.05876837877836078
1745104053578936800,9.836936767578125,0.2871218283891678,0.12025076575577258,-0.018526183831598608
1745104053588893000,9.846892822265625,0.3779530229151249,0.13197218320965767,-0.03382164211366325
1745104053598848800,9.856848876953125,0.441267849484086,0.19338263746201992,0.03536940127862617
1745104053608803800,9.866803955078124,0.46378487478382885,0.26030571765601634,0.07937841967931017
1745104053618760000,9.876760009765626,0.38943120619766414,0.23958266310095785,0.08602669858736917
1745104053628715800,9.8867158203125,0.20104864204525946,0.10171090045869349,0.05901044390592724
1745104053638672000,9.896671875,0.08070435278713703,-0.04383095842003822,0.06776566849797963
1745104053648627700,9.906627685546875,-0.13710180118307472,-0.047699908807873725,0.06760702560385688
1745104053658583000,9.9165830078125,-0.2366981206405908,-0.04733341358304023,0.02424777634879574
1745104053668539000,9.926538818359376,-0.23516601570248602,-0.08968260901272296,-0.05922742939116433
1745104053678495200,9.9364951171875,-0.32161453816480934,-0.08715981253683566,-0.11652210062146186
1745104053688451300,9.946451416015625,-0.28849961954839526,-0.1439344236820936,-0.1555557600286789
1745104053698406100,9.95640625,-0.19152970307171344,-0.13991232855916022,-0.19247074678149073
1745104053708362200,9.9663623046875,-0.1242628509413451,-0.024610125121474265,-0.19607273506252093
1745104053718318300,9.976318359375,0.0019037877947092054,0.06145663148164749,-0.14130478756455703
1745104053728274400,9.9862744140625,0.10287234545350074,0.08299801668226718,-0.06264823415270075
1745104053738230300,9.996230224609375,0.1346749393623322,0.06365794091820716,-0.012789320680033415
1745104053748185000,10.00618505859375,0.2023451115965843,0.054607788500189776,0.04704802077040076
1745104053758141200,10.01614111328125,0.28240480980463323,0.13597265102267264,0.10484437617883086
1745104053768097300,10.02609716796875,0.3512211563993245,0.22753040625751017,0.14808960713278502
1745104053778053400,10.036053466796876,0.33144678087122736,0.19347148478925227,0.11093743235692381
1745104053788008200,10.04600830078125,0.23002748377025126,0.0832633896201849,0.08846117745898663
1745104053797964300,10.05596435546875,0.10478665464222431,0.014711246919631956,0.1031819959245622
1745104053807920000,10.065920166015625,0.056541386911273,0.008247603863477707,0.03082562036914751
1745104053817876200,10.075876220703124,-0.02643500246107578,0.031983284237980844,-0.040949046308174725
1745104053827832300,10.085832275390626,-0.12340659943819045,0.02539630706310272,-0.10526073842737824
1745104053837787100,10.095787109375,-0.19560330918617547,-0.0675602090537548,-0.13393011234439908
1745104053847743200,10.1057431640625,-0.2541191379755735,-0.15246084448695182,-0.1731265428315848
1745104053857699000,10.115698974609375,-0.27469730416722593,-0.13181728490889072,-0.2166361238101497
1745104053867655200,10.1256552734375,-0.17200608743429183,-0.04728372922241687,-0.18694047558531163
1745104053877611300,10.135611328125,-0.10540734382383525,0.0122650228112936,-0.11720577203668653
1745104053887566300,10.14556640625,-0.06281922507174313,0.025467618733644483,-0.05668594648111611
1745104053897522200,10.155522216796875,0.0148917911183089,-0.021192425632476804,-0.006104089028760791
1745104053907478300,10.165478271484375,0.13248239775411783,0.0015407997012138366,0.053986021606344727
1745104053917434000,10.17543408203125,0.18506247981898485,0.14587094470262527,0.10166426657168194
1745104053927389200,10.18538916015625,0.27262985024340447,0.1862374418824911,0.16871062608547507
1745104053937345300,10.19534521484375,0.3130219933211803,0.14949088876545427,0.17496217902721836
1745104053947301000,10.205301025390625,0.24593239745385945,0.0935807854950428,0.11475675318306311
1745104053957257200,10.21525732421875,0.22031506805121898,0.05126841494441032,0.0623289208041504
1745104053967213000,10.225213134765625,0.18764387461431323,0.0872977597028017,0.05212510483898222
1745104053977168400,10.23516845703125,0.12597674218714236,0.13148644551932812,-0.03610387129932642
1745104053987124200,10.245124267578126,0.028545637939497825,0.049557519373297686,-0.10851778572825714
1745104053997080300,10.255080322265625,-0.09112520903646945,-0.05709726722836494,-0.16253610216900705
1745104054007036200,10.2650361328125,-0.19524090561456978,-0.12519640546441077,-0.18609151233946902
1745104054016991200,10.2749912109375,-0.21769816355109214,-0.11709317850768565,-0.20914852626742794
1745104054026947300,10.284947265625,-0.20924363893866538,-0.05062660990953445,-0.18463051814250647
1745104054036903200,10.294903076171876,-0.19788294455595312,-0.014328385081887244,-0.13351594205293804
1745104054046859300,10.304859375,-0.17786657696552574,-0.057680035552382464,-0.0647582120439969
1745104054056815000,10.314815185546875,-0.1445925953298807,-0.0997720413506031,-0.032876433685421945
1745104054066770400,10.3247705078125,-0.03663191376142204,-0.02559972068071365,0.03303573416667059
1745104054076726300,10.334726318359374,0.09842420693822204,0.09353811539709568,0.11671223463239147
1745104054086682400,10.344682373046876,0.2022276957619935,0.14451310035288334,0.13848605861570684
1745104054096638200,10.35463818359375,0.24148652396090328,0.12481938884556293,0.13928725546337664
1745104054106593000,10.364593017578125,0.2370844896096736,0.08324526944160461,0.09608641164042055
1745104054116549400,10.37454931640625,0.2738140915919095,0.06928513315021992,0.08676918751774355
1745104054126505200,10.384505126953124,0.27097156164236363,0.13947218357622623,0.03931366365868598
1745104054136461300,10.39446142578125,0.23929924304969608,0.1591238095074892,-0.05610798219637945
1745104054146417200,10.404417236328126,0.1701081448584795,0.09751637137830257,-0.1086227804726921
1745104054156372200,10.414372314453125,0.03572890050709247,-0.0038280338555574415,-0.15354126013480127
1745104054166328000,10.424328125,-0.08230484678633511,-0.06128712013363838,-0.17599455428225919
1745104054176284400,10.434284423828124,-0.1371679982870817,-0.07190320669412613,-0.18333234982443972
1745104054186240300,10.444240234375,-0.14718312327973543,-0.029206805261969563,-0.1570564103825949
1745104054196196400,10.4541962890625,-0.20946867986619472,-0.05181085125803947,-0.09175565242711455
1745104054206151200,10.464151123046875,-0.20795067651867866,-0.08342237957417964,-0.05120925036938861
1745104054216107000,10.47410693359375,-0.20392222472019492,-0.1284200436860323,-0.00345483489530161
1745104054226063400,10.4840634765625,-0.13701368450820445,-0.03931844943165779,0.05939741566320881
1745104054236019200,10.494019287109374,-0.024522373772785065,0.04632277523577213,0.11649411663599311
1745104054245975300,10.503975341796876,0.07780687777996063,0.0841951175123453,0.11319396084574981
1745104054255930000,10.51393017578125,0.10627134024202824,0.06998129872083664,0.09230075562186539
1745104054265886200,10.52388623046875,0.17125439228415487,0.0407733244150877,0.06946399684846401
1745104054275842300,10.53384228515625,0.245250187343359,0.06969137586355209,0.05584043556768447
1745104054285798400,10.54379833984375,0.26184235263876615,0.1543044265270233,-0.03487288646595552
1745104054295753200,10.553753173828126,0.26387707333676513,0.16939210554361342,-0.0649074477889575
1745104054305709000,10.563708984375,0.2253144107084721,0.10020926372408866,-0.09545443387981503
1745104054315665200,10.5736650390625,0.12518003885149956,0.026557752057909965,-0.13773713994454592
1745104054325621200,10.583621337890625,0.04756371520757675,-0.004602525359392166,-0.13973554722014814
1745104054335577300,10.593577392578124,-0.024772695272043347,-0.005984919628500938,-0.1476968997544609
1745104054345532200,10.6035322265625,-0.0896281754117459,0.0007657236754894256,-0.09850775703582912
1745104054355488300,10.61348828125,-0.18255904563069342,-0.02322247015535831,-0.02615866973772645
1745104054365444000,10.623444091796875,-0.23203232078664005,-0.09288637349009514,-0.011418306321464478
1745104054375400200,10.633400146484375,-0.22768764264583585,-0.12353285616636275,0.020008129485044625
1745104054385356300,10.643356201171875,-0.2181131010275334,-0.06703413935303687,0.07216397652216255
1745104054395311400,10.653311279296876,-0.12655242318324744,0.0023538696497678755,0.09791280508367343
1745104054405267200,10.66326708984375,-0.04834631695263088,0.011738368588685988,0.07632537051793187
1745104054415223000,10.67322314453125,-0.005371756166219711,0.01873451108634472,0.04638394910478964
1745104054425179100,10.68317919921875,0.11523681005127727,0.027213585618138313,0.02039422445949167
1745104054435134200,10.69313427734375,0.22767595220804213,0.09857435599863529,-0.017150913423020393
1745104054445090300,10.70309033203125,0.3279337312489748,0.1769569878399372,-0.0709467644858174
1745104054455046100,10.713046142578126,0.3904553616136312,0.1971440358221531,-0.11770541038820519
1745104054465002200,10.723002197265625,0.3803302734404802,0.1759288138359785,-0.1351416252923198
1745104054474958000,10.7329580078125,0.3146072166860103,0.10347732560932636,-0.11533497319612651
1745104054484913400,10.742913330078125,0.20987660307995973,0.06945639806389808,-0.1184986796577461
1745104054494869200,10.752869140625,0.07811616292484104,0.05426935032606125,-0.07264580522235482
1745104054504825300,10.762825439453126,-0.07365786834172904,0.011621464210748672,-0.028942656166758386
1745104054514781200,10.77278125,-0.2415893267482519,-0.07322831781804562,0.026152276529558
1745104054524737300,10.7827373046875,-0.3700543055545538,-0.15817863761186599,0.04057953714234754
1745104054534692400,10.7926923828125,-0.42131987095475193,-0.1979021607130766,0.0674099686617963
1745104054544648200,10.802648193359374,-0.39222763198316096,-0.143241765242815,0.07276221640994772
1745104054554604300,10.812604248046876,-0.27843817119598385,-0.07356500242650509,0.04514967633578926
1745104054564560100,10.82256005859375,-0.17560564629621803,-0.02644844646453857,0.022581541903316973
1745104054574516200,10.83251611328125,-0.03316876769550144,0.003879471781849861,-0.01257399742892012
1745104054584471300,10.84247119140625,0.11036708512306213,0.03893091141879558,-0.04245079264063388
1745104054594427400,10.852427490234374,0.29858664073348046,0.13278408411443232,-0.11465349373798817
1745104054604383200,10.86238330078125,0.43257893159389493,0.22223463793694972,-0.14311033914918078
1745104054614339300,10.87233935546875,0.4958985074032098,0.24103753808438777,-0.13177054142402483
1745104054624295200,10.882295166015625,0.4757599016726017,0.2127501857548952,-0.09263428015885875
1745104054634250200,10.892250244140625,0.37032040914483366,0.1517857217043638,-0.061521988335438066
1745104054644206300,10.902206298828125,0.26685952321365475,0.11740122154355048,-0.026959683922305702
1745104054654162200,10.912162109375,0.13903086954951285,0.10109949056208133,0.02521738856593147
1745104054664118300,10.9221181640625,-0.014962079875543712,0.02979951045811176,0.08075838452931493
1745104054674073600,10.932073486328125,-0.194216165676713,-0.0783048904299736,0.08663556946702301
1745104054684029000,10.94202880859375,-0.3547339868258685,-0.17048165434598922,0.06969897464811801
1745104054693984800,10.95198486328125,-0.4369418029785156,-0.20204817447662352,0.04684805948520079
1745104054703940900,10.96194091796875,-0.44257367138564585,-0.14802841499745845,0.03908040289208293
1745104054713896700,10.971896728515626,-0.380627210560441,-0.10845160689055919,-0.018617917235661297
1745104054723851800,10.981851806640625,-0.2876999205380678,-0.09381225616335868,-0.06096645507821813
1745104054733807900,10.991807861328125,-0.13852058193981648,-0.06539689354002476,-0.10713378402395174
1745104054743763700,11.001763671875,0.036415640662238,0.015634206983447075,-0.1513221410469152
1745104054753719800,11.0117197265625,0.22495792542099952,0.10416939952671528,-0.16582811118541285
1745104054763675600,11.021675537109376,0.403981271206215,0.19955869574844837,-0.14790312638366593
1745104054773631000,11.031630859375,0.4763824905503541,0.2352016715377569,-0.110220096134115
1745104054783586800,11.0415869140625,0.5174364585377276,0.23090777373611926,-0.04463206393616274
1745104054793543000,11.05154296875,0.48707741450071335,0.19852818365693092,-0.009331471843738108
1745104054803498800,11.061498779296874,0.3695774087578058,0.17846563883721828,0.05535491707306355
1745104054813454800,11.071454833984374,0.23836809967942535,0.13773849165141583,0.09031701619243249
1745104054823410000,11.081409912109375,0.047938978260755535,0.06071954937875271,0.15447813912611455
1745104054833365800,11.09136572265625,-0.13210187400393186,-0.04952770875692367,0.15726340419678017
1745104054843321900,11.10132177734375,-0.3296463803857565,-0.1588362247377634,0.10636581359244883
1745104054853277700,11.111277587890624,-0.4550158773947507,-0.18029343878626822,0.07254682009359821
1745104054863233800,11.12123388671875,-0.4576753789275884,-0.16793255438506602,0.009214877993054687
1745104054873188600,11.131188720703125,-0.41777291906289754,-0.14381927286982535,-0.07908206708123906
1745104054883145000,11.14114501953125,-0.37137189095914364,-0.1308329500466585,-0.16908833682406693
1745104054893100800,11.151100830078125,-0.21430676754713057,-0.11585808375477791,-0.20313271831031887
1745104054903057000,11.161056884765625,-0.04899637835919857,-0.029406711748242376,-0.23112472268873824
1745104054913012700,11.1710126953125,0.12879472221732138,0.09594342297315597,-0.2169450436288491
1745104054922967600,11.180967529296876,0.33433950663805007,0.17204875753223894,-0.16815171356108038
1745104054932924000,11.190923828125,0.44341428692825136,0.20460662678778171,-0.10325802030283956
1745104054942879700,11.200879638671875,0.4913193629194051,0.20770693089067935,-0.03362031085528433
1745104054952835800,11.2108359375,0.5027870248079299,0.2079746419161558,0.047856670272164045
1745104054962791700,11.220791748046874,0.451512837709859,0.2044149036079645,0.12472960993656888
1745104054972746800,11.230746826171876,0.3189666540045291,0.18750819247066974,0.1955094386239536
1745104054982702800,11.240702880859375,0.15019691814295946,0.10585691422224044,0.21154957779347897
1745104054992659000,11.250658935546875,-0.05212240142524242,-0.015344868648052215,0.19412972950227558
1745104055002614800,11.26061474609375,-0.2201174265872687,-0.11543430538475513,0.14144510935069993
1745104055012571000,11.27057080078125,-0.34368192000091075,-0.14312719895243645,0.06293402882413938
1745104055022525700,11.280525634765626,-0.3870225376207381,-0.12132160985767841,-0.03320573870502412
1745104055032481800,11.290481689453125,-0.44246436579227444,-0.1426455529153347,-0.12328836161969228
1745104055042438000,11.30043798828125,-0.3996878848612308,-0.15517127248942852,-0.21253153803553432
1745104055052393700,11.310393798828125,-0.3126765408843756,-0.1374175891339779,-0.26673421633355315
1745104055062349800,11.320349853515625,-0.17477482149526477,-0.08616612532436847,-0.29026560630761084
1745104055072304600,11.3303046875,0.017489552526548505,0.03307809373736381,-0.2713829554548487
1745104055082260700,11.3402607421875,0.1661157872866839,0.11613923878371715,-0.20346143880803136
1745104055092216800,11.350216796875,0.2703722805749625,0.14449030399918555,-0.11009131865529342
1745104055102173000,11.3601728515625,0.351671165189147,0.1464139655381441,0.008215181164909154
1745104055112128800,11.370128662109375,0.42134558991789817,0.1712666672438383,0.10333371588755398
1745104055122083600,11.38008349609375,0.4230507133353501,0.21919980028569697,0.18418235424989834
1745104055132039700,11.390039794921876,0.4021768521327525,0.21662498136162756,0.24775928408745676
1745104055141995800,11.399995849609375,0.2840701126683503,0.15015490563213824,0.27451511600073425
1745104055151952000,11.409951904296875,0.10000650769360363,0.03631459144055843,0.22777161286855116
1745104055161907700,11.41990771484375,-0.030352979622408745,-0.024769115075469014,0.16117180981216953
1745104055171862800,11.42986279296875,-0.1466658214073628,-0.042240474358201024,0.056124513206072146
1745104055181818600,11.439818603515626,-0.24710714032165704,-0.055288171979784966,-0.06334337681001052
1745104055191774700,11.449774658203125,-0.30479426320195196,-0.11628653829991817,-0.18193095859391614
1745104055201730800,11.459730712890625,-0.3695692254513502,-0.15022797086834908,-0.26655717926621436
1745104055211687000,11.46968701171875,-0.36149814719855783,-0.16941256380975245,-0.3089363314427435
1745104055221641700,11.479641845703124,-0.23426767862327397,-0.09864274505972861,-0.3144039491988718
1745104055231597800,11.489597900390624,-0.1097363860040903,-0.01595861663222313,-0.26001373070580885
1745104055241553700,11.4995537109375,0.009656301617622374,0.0663835664898157,-0.17242254101438448
1745104055251509800,11.509509765625,0.1548153717238456,0.06830898159444332,-0.07234844797728583
1745104055261465900,11.5194658203125,0.2620101104211062,0.10309797090291976,0.03700178825343028
1745104055271420700,11.529420654296874,0.33964638087451454,0.15707739837169646,0.15306449120221657
1745104055281376800,11.539376708984374,0.3905051190394908,0.18909692296683786,0.2225281775234267
1745104055291332600,11.54933251953125,0.39234797042720015,0.2138525940388441,0.28353436182383446
1745104055301289000,11.5592890625,0.30611886286921797,0.1633370432883501,0.277857704426907
1745104055311244800,11.569244873046875,0.19224398882091046,0.06899871742427349,0.24579773822352288
1745104055321199900,11.579199951171875,0.08528342420570552,0.02496317634284496,0.14502041055420412
1745104055331155700,11.58915576171875,-0.0357844300866127,0.020907178950309753,0.025152433570940047
1745104055341111800,11.59911181640625,-0.12271620602123438,-0.025611411118507385,-0.10362133718989788
1745104055351068000,11.60906787109375,-0.2254506043087691,-0.09358779975771904,-0.21926976024936884
1745104055361023700,11.619023681640625,-0.3133054133724421,-0.13213117316365242,-0.2997717953974381
1745104055370978800,11.628978759765625,-0.3187175015490502,-0.15336393080651758,-0.3563551582869142
1745104055380934700,11.6389345703125,-0.27405593752376733,-0.1088695400416851,-0.33295952352173624
1745104055390890800,11.648890869140626,-0.19973872849047183,-0.0341547830581665,-0.2541222797807306
1745104055400846600,11.6588466796875,-0.09201894300580024,-0.009873743760585784,-0.1744520375479944
1745104055410803000,11.668802978515625,0.025257848440483212,0.0028916297882795334,-0.055499312246125185
1745104055420757800,11.6787578125,0.11986446985192596,0.0458534041583538,0.07041179909259081
1745104055430713900,11.6887138671875,0.23786657989807425,0.11520634184777737,0.18032155063590033
1745104055440669700,11.698669677734374,0.3181903358697891,0.17027239550948142,0.25410649768970905
1745104055450625800,11.708625732421876,0.34950258897840975,0.17841887708604334,0.2959908155540004
1745104055460582000,11.718581787109375,0.3259387580394745,0.15705635558366773,0.26673639002433047
1745104055470536700,11.72853662109375,0.275604993596673,0.10572130514383316,0.21777376780426128
1745104055480492800,11.738492919921875,0.18971585858277976,0.09234685978591442,0.09963228582004084
1745104055490448600,11.74844873046875,0.09901216289401053,0.0819645819813013,-0.031901980896387246
1745104055500404700,11.75840478515625,-0.0011192863535135983,0.033278584745526314,-0.13062244910113513
1745104055510360800,11.76836083984375,-0.12451894459426402,-0.061571197772026055,-0.23630652750711886
1745104055520316000,11.77831591796875,-0.20993279024660585,-0.11622867063283919,-0.32691216964889314
1745104055530271700,11.788271728515625,-0.2548042706955224,-0.11860416759252547,-0.341918673188053
1745104055540227800,11.798227783203124,-0.2689981426775455,-0.08126900093257426,-0.2956035698020831
1745104055550183700,11.80818359375,-0.22547471583671866,-0.06919277869164943,-0.21168213639827443
1745104055560139800,11.818139892578126,-0.16937983058393,-0.06348959861397743,-0.13536761606791986
1745104055570094800,11.8280947265625,-0.11957746960408985,-0.039919337934255596,-0.004571856226492673
1745104055580050700,11.83805078125,0.004849778118729591,0.0030757541835308073,0.09831742209549993
1745104055590006800,11.8480068359375,0.12331008026115596,0.09210603676736354,0.19134601706787943
1745104055599962600,11.857962646484374,0.2274246808607131,0.14263152438998222,0.26969145870395
1745104055609918700,11.867918701171876,0.29763270100951195,0.15883388665020465,0.28489253496713934
1745104055619873800,11.877873779296875,0.30693478236198424,0.14624153158068656,0.24024103567814453
1745104055629830000,11.887829833984375,0.29750695573799313,0.1269862114906311,0.1609657293134369
1745104055639785700,11.89778564453125,0.2809585565190762,0.1404582720041275,0.0659912427039817
1745104055649741800,11.907741943359374,0.2165191828995943,0.1234878479808569,-0.05331305424822494
1745104055659697700,11.91769775390625,0.10604987951107323,0.06623451340794563,-0.15505025819195434
1745104055669654000,11.927654052734376,-0.030941666230559346,-0.016709142738580703,-0.2395612915193662
1745104055679608800,11.93760888671875,-0.11870821248888969,-0.08389350421726703,-0.29968924994682894
1745104055689564700,11.947564697265625,-0.22343699946403503,-0.08517828333079815,-0.3163903737757355
1745104055699520800,11.957520751953124,-0.27448738774359227,-0.06693886228501797,-0.26504345023501663
1745104055709476600,11.9674765625,-0.26984453037381173,-0.0993453403711319,-0.1870938577824272
1745104055719432700,11.9774326171875,-0.26892566196322437,-0.08916180000901222,-0.09526800792962312
1745104055729387800,11.9873876953125,-0.19830723438262937,-0.0916156229019165,0.024154015384428202
1745104055739343600,11.997343505859375,-0.09407119936048984,-0.03927753289937973,0.12179671655613929
1745104055749299700,12.0072998046875,0.02685410465598106,0.04938625445961952,0.20168191671380772
1745104055759255600,12.017255615234374,0.15511640049703418,0.10314122552275658,0.22950806300602852
1745104055769211600,12.027211669921876,0.23455935504622755,0.12302899829745292,0.23901626138985155
1745104055779166700,12.037166748046875,0.3003882102627307,0.13881576549410818,0.18761950735803692
1745104055789122800,12.047122802734375,0.33486148468554017,0.15301204862892626,0.10351478980919346
1745104055799078700,12.05707861328125,0.3335095586199313,0.16154665274024008,0.021414945809356867
1745104055809034800,12.06703466796875,0.2823609706629068,0.15785422796308993,-0.09204955733977258
1745104055818990600,12.076990478515626,0.18925006770193575,0.1044511390775442,-0.17410492287706583
1745104055828945700,12.086945556640625,0.07627601495087147,0.01574585066437721,-0.23537870860509574
1745104055838901800,12.09690185546875,-0.04721826277077198,-0.03534779223501682,-0.27280551733756436
1745104055848857600,12.106857666015625,-0.16546821009814738,-0.06755319479107856,-0.2397757927865721
1745104055858813700,12.116813720703124,-0.22982290110886094,-0.09668401220738887,-0.18650774672385304
1745104055868769500,12.12676953125,-0.2953583263367414,-0.10654781909584998,-0.13320570705998688
1745104055878724900,12.136724853515625,-0.3062783642798662,-0.1293207919180393,-0.04734461083048954
1745104055888680700,12.1466806640625,-0.25684067189395426,-0.12728957835137844,0.044418256788700816
1745104055898636800,12.15663671875,-0.1779156037390232,-0.06399930170178413,0.11434225409803911
1745104055908592600,12.166592529296874,-0.053763665826246136,0.025032734447717666,0.18259718568399547
1745104055918548700,12.176548828125,0.06341828694343567,0.06719020669758319,0.17462284580394624
1745104055928503800,12.18650390625,0.17197503470890224,0.10091127451360225,0.1443565398179926
1745104055938459600,12.196459716796875,0.258228253794834,0.12273965996205806,0.13031701814746482
1745104055948415700,12.206415771484375,0.32169154892377555,0.139368138679862,0.04894117757324129
1745104055958371600,12.21637158203125,0.35801140106134116,0.17217676782608032,-0.04696032422063872
1745104055968327700,12.22632763671875,0.34569384434521194,0.17599018863439558,-0.10567534711025654
1745104055978283500,12.236283447265626,0.2710515680760145,0.1297527535945177,-0.1682483423359692
1745104055988238800,12.24623876953125,0.16529877181537447,0.05298281764686107,-0.20264186605345458
1745104055998194700,12.256194580078125,0.031529110729694367,0.0003337619990110397,-0.20482384973503648
1745104056008150800,12.26615087890625,-0.07760229511857032,-0.028791210198402403,-0.18125735191497952
1745104056018106600,12.276106689453124,-0.17627368175089358,-0.05126841494441032,-0.14490666624773293
