time,seconds_elapsed,z,y,x
1745104043792440800,0.05044091796875,-0.052423473447561264,0.06709069013595581,0.18151430785655975
1745104043802397000,0.06039697265625,-0.033049773424863815,-0.040115661919116974,0.15151219069957733
1745104043812352000,0.07035205078125,-0.013452088460326195,-0.10522611439228058,0.05503595620393753
1745104043822308000,0.08030810546875,-0.07713652402162552,-0.07713136076927185,-0.07676202058792114
1745104043832264000,0.090263916015625,-0.12161503732204437,-0.040326423943042755,-0.14521580934524536
1745104043842220000,0.100219970703125,-0.06827778369188309,-0.08220542967319489,-0.1313151717185974
1745104043852175000,0.110175048828125,-0.012984497472643852,-0.0945454090833664,-0.11937111616134644
1745104043862131000,0.120130859375,-0.028026031330227852,-0.022097568958997726,-0.15510940551757812
1745104043872087000,0.130087158203125,-0.02618764340877533,0.047661326825618744,-0.193796768784523
1745104043882043000,0.14004296875,0.0556611493229866,0.040023114532232285,-0.15933173894882202
1745104043891998000,0.149998046875,0.1054556593298912,0.02036968246102333,-0.05615915730595589
1745104043901954000,0.1599541015625,0.07873643189668655,0.10495567321777344,0.03966616839170456
1745104043911910100,0.16991015625,0.05466419458389282,0.12450108677148819,0.0993177518248558
1745104043921866000,0.179865966796875,0.09074496477842331,0.06602340191602707,0.12855473160743713
1745104043931821000,0.189821044921875,0.08817654103040695,0.008575338870286942,0.1414005160331726
1745104043941777000,0.19977685546875,-0.000786619377322495,0.030664930120110512,0.16117635369300842
1745104043951733000,0.20973291015625,-0.06951611489057541,0.009681617841124535,0.1776600331068039
1745104043961689000,0.219689208984375,-0.05650949850678444,-0.07267744094133377,0.15057888627052307
1745104043971644000,0.229643798828125,-0.05515741929411888,-0.11583321541547775,0.0794377401471138
1745104043981600000,0.23960009765625,-0.10961214452981949,-0.08614243566989899,-0.01340191625058651
1745104043991555800,0.249555908203125,-0.12112944573163986,-0.060335177928209305,-0.06795265525579453
1745104044001512000,0.259511962890625,-0.06108661741018295,-0.08879025280475616,-0.0843537300825119
1745104044011467000,0.269467041015625,-0.01986960507929325,-0.0817294791340828,-0.10448861122131348
1745104044021423000,0.279423095703125,-0.018570780754089355,0.013521673157811165,-0.15107634663581848
1745104044031379000,0.28937890625,0.013199260458350182,0.0633990690112114,-0.1807316243648529
1745104044041335000,0.2993349609375,0.09440303593873978,0.05643516778945923,-0.15879037976264954
1745104044051290000,0.3092900390625,0.12640149891376495,0.07213801890611649,-0.08789154887199402
1745104044061246000,0.319245849609375,0.08603516966104507,0.13190147280693054,-0.021864069625735283
1745104044071202000,0.3292021484375,0.07134242355823517,0.13068413734436035,0.02578912116587162
1745104044081158000,0.339157958984375,0.09509862214326859,0.04436897113919258,0.06859837472438812
1745104044091113200,0.34911328125,0.06515858322381973,0.00755646824836731,0.10506127029657364
1745104044101069000,0.359069091796875,-0.02998577617108822,0.0117331026121974,0.13846689462661743
1745104044111025200,0.369025146484375,-0.084825299680233,-0.0215168334543705,0.15825586020946503
1745104044120980000,0.37897998046875,-0.06607291847467422,-0.0981956347823143,0.14499305188655853
1745104044130935800,0.388935791015625,-0.08238587528467178,-0.13473814725875854,0.0969851166009903
1745104044140892000,0.398891845703125,-0.13147112727165222,-0.09121383726596832,0.04083956032991409
1745104044150848000,0.408847900390625,-0.12243082374334335,-0.07542172074317932,0.004232429433614016
1745104044160803000,0.418802978515625,-0.055939681828022,-0.09405133128166199,-0.028040023520588875
1745104044170759000,0.428759033203125,-0.009919138625264168,-0.059468213468790054,-0.0749601200222969
1745104044180715000,0.438715087890625,-0.0008068670285865664,0.04274817183613777,-0.12853333353996277
1745104044190670800,0.4486708984375,0.04185803607106209,0.0794643759727478,-0.15757963061332703
1745104044200626000,0.4586259765625,0.11990516632795334,0.06796137988567352,-0.13894149661064148
1745104044210582000,0.46858203125,0.13813292980194092,0.09206096082925797,-0.10477079451084137
1745104044220537900,0.478537841796875,0.09119044989347458,0.13819757103919983,-0.06879574805498123
1745104044230494000,0.488493896484375,0.07401199638843536,0.11803556978702545,-0.0375179797410965
1745104044240449000,0.498448974609375,0.0917276069521904,0.045733414590358734,0.004113350063562393
1745104044250405000,0.508405029296875,0.0447068065404892,-0.004323575180023909,0.06459621340036392
1745104044260361000,0.51836083984375,-0.043826788663864136,-0.001652957173064351,0.11264868825674057
1745104044270317000,0.528317138671875,-0.09008127450942993,-0.04073447361588478,0.14071233570575714
1745104044280272100,0.538272216796875,-0.08454136550426483,-0.12429434061050415,0.14035627245903015
1745104044290228000,0.54822802734375,-0.09645987302064896,-0.13887850940227509,0.11071702092885971
1745104044300184000,0.55818408203125,-0.13353532552719116,-0.09702613949775696,0.07631111145019531
1745104044310140000,0.568139892578125,-0.11758951842784882,-0.06844764202833176,0.05022341385483742
1745104044320096000,0.578095947265625,-0.047668494284152985,-0.07889282703399658,0.02491273172199726
1745104044330051000,0.588051025390625,0.0040970779955387115,-0.03090953826904297,-0.03077508881688118
1745104044340007200,0.598007080078125,0.012261796742677689,0.04810165613889694,-0.09112284332513809
1745104044349963000,0.607962890625,0.06064987555146217,0.09134260565042496,-0.11940611898899078
1745104044359919000,0.617919189453125,0.12730959057807922,0.08159783482551575,-0.12126313894987106
1745104044369874000,0.6278740234375,0.13685670495033264,0.0973435565829277,-0.11211274564266205
1745104044379829800,0.637829833984375,0.09354383498430252,0.13705500960350037,-0.09923689812421799
1745104044389786000,0.6477861328125,0.07680666446685791,0.10984784364700317,-0.08525621145963669
1745104044399742000,0.657741943359375,0.07963946461677551,0.03237062692642212,-0.048412710428237915
1745104044409697000,0.667697021484375,0.027177859097719193,-0.011578453704714775,0.011383511126041412
1745104044419652900,0.67765283203125,-0.057538095861673355,-0.015315935015678406,0.06429386883974075
1745104044429609000,0.68760888671875,-0.09758725762367249,-0.05760996788740158,0.10238376259803772
1745104044439565000,0.69756494140625,-0.09058314561843872,-0.13469623029232025,0.11932865530252457
1745104044449519900,0.707519775390625,-0.10082587599754333,-0.1304377317428589,0.10829625278711319
1745104044459476000,0.71747607421875,-0.1306024044752121,-0.09238328784704208,0.10050677508115768
1745104044469431800,0.727431884765625,-0.10410448908805847,-0.0710688903927803,0.0947861447930336
1745104044479388000,0.737387939453125,-0.032019637525081635,-0.06350124627351761,0.0733058899641037
1745104044489343000,0.747343017578125,0.007354907225817442,-0.014049173332750797,0.022348619997501373
1745104044499299000,0.757299072265625,0.02541886270046234,0.06320540606975555,-0.038476377725601196
1745104044509255000,0.7672548828125,0.07157545536756516,0.09173355251550674,-0.08169206231832504
1745104044519211000,0.7772109375,0.12656520307064056,0.08817584067583084,-0.09543290734291077
1745104044529166000,0.787166015625,0.1257510632276535,0.09865692257881165,-0.10708808153867722
1745104044539122200,0.7971220703125,0.08952301740646362,0.12928460538387299,-0.11892317235469818
1745104044549078000,0.807078125,0.07627244293689728,0.08815138787031174,-0.11419640481472015
1745104044559034000,0.8170341796875,0.06426850706338882,0.01975928246974945,-0.08494877070188522
1745104044568989000,0.826989013671875,0.0054928637109696865,-0.012896023690700531,-0.03884092718362808
1745104044578945000,0.836945068359375,-0.06471312791109085,-0.02413696050643921,0.01391283143311739
1745104044588901000,0.846901123046875,-0.0933399572968483,-0.0760117694735527,0.06002143397927284
1745104044598857000,0.85685693359375,-0.08858036249876022,-0.1275617778301239,0.0899210050702095
1745104044608812000,0.86681201171875,-0.10120941698551178,-0.11341432482004166,0.10787265002727509
1745104044618768000,0.876767822265625,-0.11856204271316528,-0.08034957945346832,0.11493748426437378
1745104044628724200,0.88672412109375,-0.08233475685119629,-0.05918730050325394,0.12160474807024002
1745104044638680000,0.89668017578125,-0.02078351192176342,-0.044307954609394073,0.10999762266874313
1745104044648635000,0.906634765625,0.010816225782036781,-0.0003634016029536724,0.06802967190742493
1745104044658591000,0.916591064453125,0.03293084725737572,0.07251027226448059,0.012635122053325176
1745104044668546600,0.926546630859375,0.0763457790017128,0.08166596293449402,-0.03589105233550072
1745104044678502700,0.936502685546875,0.114716075360775,0.07809385657310486,-0.0656670555472374
1745104044688457700,0.946457763671875,0.10670522600412369,0.10110745579004288,-0.09173701703548431
1745104044698413600,0.95641357421875,0.07740459591150284,0.10014445334672928,-0.12149570882320404
1745104044708369700,0.96636962890625,0.061887163668870926,0.06306479126214981,-0.13441751897335052
1745104044718325500,0.976325439453125,0.043659958988428116,0.007374627981334925,-0.11958689987659454
1745104044728280600,0.986280517578125,-0.007475970312952995,-0.017799168825149536,-0.08647559583187103
1745104044738236700,0.996236572265625,-0.06503194570541382,-0.04050315171480179,-0.0386795774102211
1745104044748192500,1.006192626953125,-0.08419929444789886,-0.07556457817554474,0.012884545139968395
1745104044758148600,1.016148681640625,-0.07995980978012085,-0.11052868515253067,0.052637550979852676
1745104044768103700,1.026103759765625,-0.09008903056383133,-0.09962409734725952,0.08627445995807648
1745104044778059800,1.036059814453125,-0.09768090397119522,-0.06207352876663208,0.11767259240150452
1745104044788015600,1.046015625,-0.061228469014167786,-0.04253978282213211,0.1387902796268463
1745104044797971700,1.0559716796875,-0.008187619037926197,-0.03235612064599991,0.13411909341812134
1745104044807926500,1.065926513671875,0.019180743023753166,0.016634119674563408,0.10086602717638016
1745104044817882600,1.075882568359375,0.038257766515016556,0.07243692874908447,0.05184496194124222
1745104044827838700,1.085838623046875,0.06963878124952316,0.07548411190509796,0.012484158389270306
1745104044837794600,1.095794677734375,0.09942543506622314,0.07667960971593857,-0.024905024096369743
1745104044847750700,1.105750732421875,0.08881276100873947,0.08026571571826935,-0.06466460973024368
1745104044857705500,1.11570556640625,0.055265456438064575,0.07718896865844727,-0.11073543131351471
1745104044867661800,1.125661865234375,0.03999384865164757,0.0430026613175869,-0.13626281917095184
1745104044877617700,1.13561767578125,0.02165345661342144,-0.0025440496392548084,-0.1382138431072235
1745104044887573800,1.14557373046875,-0.017513401806354523,-0.03240644931793213,-0.11388476938009262
1745104044897528600,1.155528564453125,-0.06171814352273941,-0.044233813881874084,-0.07599704712629318
1745104044907484700,1.165484619140625,-0.07528270781040192,-0.06682232022285461,-0.03588714078068733
1745104044917440800,1.175440673828125,-0.07228904962539673,-0.09083923697471619,0.005627545993775129
1745104044927396900,1.18539697265625,-0.07024805247783661,-0.07955659925937653,0.04937902092933655
1745104044937351700,1.1953515625,-0.06341385096311569,-0.04780399799346924,0.10032076388597488
1745104044947307500,1.2053076171875,-0.035064730793237686,-0.022557493299245834,0.13223852217197418
1745104044957263600,1.215263671875,-0.0007128802826628089,-0.006220065988600254,0.13573604822158813
1745104044967219700,1.2252197265625,0.029407190158963203,0.03141508623957634,0.11281399428844452
1745104044977174800,1.2351748046875,0.04851190745830536,0.05404263362288475,0.08261214941740036
1745104044987130600,1.245130615234375,0.06309134513139725,0.06934621930122375,0.05247658118605614
1745104044997086700,1.255086669921875,0.07101744413375854,0.07192841917276382,0.01449910644441843
1745104045007042600,1.26504248046875,0.06419380754232407,0.053995318710803986,-0.037079013884067535
1745104045016997600,1.27499755859375,0.042149756103754044,0.041604429483413696,-0.09300272911787033
1745104045026953700,1.28495361328125,0.017811529338359833,0.01813741773366928,-0.13306036591529846
1745104045036909600,1.29490966796875,-0.0050141592510044575,-0.01273740828037262,-0.14392447471618652
1745104045046865700,1.30486572265625,-0.03189593553543091,-0.041527681052684784,-0.1327257603406906
1745104045056820700,1.31482080078125,-0.05056123062968254,-0.047736309468746185,-0.10839112848043442
1745104045066776800,1.32477685546875,-0.061288077384233475,-0.06242474913597107,-0.07613492757081985
1745104045076732700,1.334732666015625,-0.05922972038388252,-0.05869605764746666,-0.038949206471443176
1745104045086688800,1.344688720703125,-0.044774796813726425,-0.04585263878107071,0.018832264468073845
1745104045096643600,1.3546435546875,-0.025131316855549812,-0.03287186101078987,0.08585710823535919
1745104045106599700,1.364599609375,-0.004438924137502909,-0.01043063122779131,0.13142016530036926
1745104045116555800,1.3745556640625,0.008055562153458595,0.028401188552379608,0.13973109424114227
1745104045126511600,1.38451171875,0.0297823715955019,0.04400927573442459,0.12494377791881561
1745104045136466700,1.394466796875,0.05312178283929825,0.04681731387972832,0.10756931453943253
1745104045146422500,1.404422607421875,0.05442090705037117,0.05064880847930908,0.08561292290687561
1745104045156378600,1.414378662109375,0.0409836620092392,0.054869651794433594,0.05371198430657387
1745104045166334700,1.424334716796875,0.02757461741566658,0.038169015198946,-0.004188523627817631
1745104045176290800,1.434290771484375,0.021062655374407768,0.00756370322778821,-0.06597811728715897
1745104045186245600,1.44424560546875,0.002300205174833536,-0.006475038360804319,-0.11341647803783417
1745104045196201500,1.454201416015625,-0.029014308005571365,-0.026921190321445465,-0.13211160898208618
1745104045206157600,1.464157470703125,-0.0362088605761528,-0.03855803608894348,-0.1310373693704605
1745104045216113700,1.47411376953125,-0.037193696945905685,-0.05336494743824005,-0.11873834580183029
1745104045226068700,1.48406884765625,-0.04368194192647934,-0.0463508702814579,-0.10121478885412216
1745104045236024600,1.494024658203125,-0.04150800406932831,-0.022704394534230232,-0.07257888466119766
1745104045245980700,1.503980712890625,-0.02219771035015583,-0.024647066369652748,-0.011675658635795116
1745104045255936500,1.5139365234375,0.0058363210409879684,-0.008647594600915909,0.05643175542354584
1745104045265891600,1.5238916015625,0.016963275149464607,0.005235996562987566,0.10916926711797714
1745104045275847700,1.53384765625,0.023201463744044304,0.04152023419737816,0.12618501484394073
1745104045285803500,1.543803466796875,0.03627733141183853,0.04908238723874092,0.12174281477928162
1745104045295759600,1.553759521484375,0.04768950864672661,0.03722679615020752,0.11288940161466599
1745104045305714700,1.563714599609375,0.041238877922296524,0.041124336421489716,0.10005997121334076
1745104045315670800,1.5736708984375,0.018606534227728844,0.028251413255929947,0.07564730197191238
1745104045325626600,1.583626708984375,0.000264679198153317,0.012845920398831367,0.02471735142171383
1745104045335582700,1.593582763671875,-0.0025481516495347023,-0.013126291334629059,-0.0397641696035862
1745104045345537500,1.60353759765625,-0.023273402824997902,-0.03894350677728653,-0.09199248254299164
1745104045355493600,1.61349365234375,-0.04379332438111305,-0.03401399776339531,-0.11155872792005539
1745104045365449700,1.62344970703125,-0.048440996557474136,-0.03950111195445061,-0.11912617832422256
1745104045375405600,1.633405517578125,-0.03589644283056259,-0.04561493173241615,-0.11041924357414246
1745104045385360600,1.643360595703125,-0.027167418971657753,-0.03175360709428787,-0.10381174832582474
1745104045395316500,1.65331640625,-0.01490729209035635,-0.005270597990602255,-0.08028858155012131
1745104045405272800,1.66327294921875,-0.0008930178009904921,0.005763346794992685,-0.028693750500679016
1745104045415228700,1.673228759765625,0.02651064284145832,0.01738644763827324,0.03869621083140373
1745104045425183700,1.683183837890625,0.04195713251829147,0.0333164781332016,0.09164651483297348
1745104045435139600,1.6931396484375,0.03541773930191994,0.0465736947953701,0.11682776361703873
1745104045445095400,1.703095458984375,0.035847730934619904,0.05285555124282837,0.11758585274219513
1745104045455051800,1.7130517578125,0.03707544505596161,0.03866303339600563,0.11462228745222092
1745104045465006600,1.723006591796875,0.026446562260389328,0.014151464216411114,0.10996905714273453
1745104045474962700,1.732962646484375,-0.0027624566573649645,0.002918250858783722,0.08909812569618225
1745104045484918500,1.74291845703125,-0.02337425760924816,-0.009741085581481457,0.03764159232378006
1745104045494874600,1.75287451171875,-0.032466821372509,-0.039074208587408066,-0.0218086838722229
1745104045504829700,1.76282958984375,-0.03468307480216026,-0.05004381760954857,-0.07399339228868484
1745104045514785800,1.772785888671875,-0.049013279378414154,-0.04716680571436882,-0.10189799964427948
1745104045524741600,1.78274169921875,-0.04828089103102684,-0.038323137909173965,-0.11108461022377014
1745104045534697700,1.79269775390625,-0.02470419555902481,-0.031237799674272537,-0.11415524035692215
1745104045544652800,1.80265283203125,-0.005191229283809662,-0.019688308238983154,-0.11760558933019638
1745104045554608600,1.812608642578125,0.010703581385314465,0.009283420629799366,-0.10216005146503448
1745104045564564700,1.822564697265625,0.0252627432346344,0.03055594675242901,-0.06062627211213112
1745104045574520600,1.8325205078125,0.042502447962760925,0.044917039573192596,-0.0002702529600355774
1745104045584475600,1.8424755859375,0.05528171733021736,0.04785968363285065,0.056540340185165405
1745104045594431700,1.852431640625,0.04852581024169922,0.047060202807188034,0.09004370123147964
1745104045604387800,1.862387939453125,0.04050753265619278,0.04927387088537216,0.10217687487602234
1745104045614343700,1.87234375,0.02301003411412239,0.026145916432142258,0.10945556312799454
1745104045624298500,1.882298583984375,0.0021845875307917595,-0.0003146175295114517,0.11368853598833084
1745104045634254600,1.892254638671875,-0.020979853346943855,-0.018637165427207947,0.10110270231962204
1745104045644210700,1.902210693359375,-0.04609641432762146,-0.030231665819883347,0.06726423650979996
1745104045654166800,1.912166748046875,-0.05305365473031998,-0.05598869547247887,0.01698615588247776
1745104045664121600,1.92212158203125,-0.05057981237769127,-0.05502302944660187,-0.03779875487089157
1745104045674078200,1.932078125,-0.04900534823536873,-0.05661027133464813,-0.06864135712385178
1745104045684034000,1.942033935546875,-0.04227340966463089,-0.03684109449386597,-0.0846560075879097
1745104045693990100,1.951990234375,-0.020873311907052994,-0.0165757704526186,-0.10047172755002975
1745104045703945200,1.9619453125,0.0073191761039197445,0.0019297362305223942,-0.10919224470853806
1745104045713901000,1.971901123046875,0.033030662685632706,0.024950366467237473,-0.1001896932721138
1745104045723857200,1.981857177734375,0.048212263733148575,0.04971632361412048,-0.07282648235559464
1745104045733812000,1.99181201171875,0.05517376959323883,0.06018441170454025,-0.022980358451604843
1745104045743768300,2.001768310546875,0.059517815709114075,0.05980036407709122,0.021204307675361633
1745104045753724200,2.01172412109375,0.054049015045166016,0.05000792443752289,0.052630141377449036
1745104045763680300,2.02168017578125,0.03446291759610176,0.04009661823511124,0.07029906660318375
1745104045773635000,2.031635009765625,0.010707257315516472,0.012936634942889214,0.08878166973590851
1745104045783591200,2.041591064453125,-0.01396615244448185,-0.013892211951315403,0.10458505153656006
1745104045793547300,2.05154736328125,-0.03898335620760918,-0.033725835382938385,0.09934847801923752
1745104045803503400,2.06150341796875,-0.058029770851135254,-0.06062152981758118,0.07448859512805939
1745104045813458200,2.071458251953125,-0.06731967628002167,-0.058801259845495224,0.030419407412409782
1745104045823414000,2.0814140625,-0.06302960216999054,-0.06638972461223602,-0.0074990601278841496
1745104045833370000,2.0913701171875,-0.04906903952360153,-0.0583065003156662,-0.03491071239113808
1745104045843326200,2.101326171875,-0.03198562562465668,-0.029309462755918503,-0.056475088000297546
1745104045853281300,2.11128125,-0.010510694235563278,-0.0058171870186924934,-0.07833085209131241
1745104045863237000,2.121237060546875,0.022316768765449524,0.01850338652729988,-0.09819978475570679
1745104045873193200,2.131193115234375,0.05152525380253792,0.043137356638908386,-0.09446469694375992
1745104045883149000,2.141149169921875,0.06392922252416611,0.06396082788705826,-0.07925652712583542
1745104045893104000,2.151104248046875,0.06774872541427612,0.06915852427482605,-0.04426658898591995
1745104045903060200,2.161060302734375,0.06613104045391083,0.06515412777662277,-0.008238467387855053
1745104045913016000,2.17101611328125,0.049398936331272125,0.048463039100170135,0.020292509347200394
1745104045922971100,2.18097119140625,0.026277665048837662,0.027158230543136597,0.04438205808401108
1745104045932927200,2.19092724609375,0.00188018090557307,0.004098718520253897,0.06910764425992966
1745104045942883300,2.20088330078125,-0.02842077612876892,-0.024163872003555298,0.09151425957679749
1745104045952839200,2.210839111328125,-0.053596436977386475,-0.05679824948310852,0.0926266610622406
1745104045962794000,2.2207939453125,-0.06965316087007523,-0.06244175136089325,0.07665915042161942
1745104045972750000,2.23075,-0.07577257603406906,-0.07061712443828583,0.04981901869177818
1745104045982706200,2.2407060546875,-0.06706610321998596,-0.06689108908176422,0.01989048346877098
1745104045992662300,2.250662353515625,-0.04966580495238304,-0.05178696662187576,0.0003173161530867219
1745104046002617000,2.2606171875,-0.022486655041575432,-0.02441105619072914,-0.026031848043203354
1745104046012573200,2.2705732421875,0.0009957668371498585,0.0031872810795903206,-0.05481555685400963
1745104046022529000,2.280529052734375,0.03362805396318436,0.03536897525191307,-0.07561096549034119
1745104046032485000,2.290485107421875,0.05804471671581268,0.054889947175979614,-0.0839674323797226
1745104046042440200,2.300440185546875,0.07310007512569427,0.07162881642580032,-0.07268901914358139
1745104046052396000,2.31039599609375,0.07410675287246704,0.07825396209955215,-0.05223434418439865
1745104046062352100,2.32035205078125,0.06727967411279678,0.06701206415891647,-0.030331293120980263
1745104046072308000,2.330307861328125,0.051420822739601135,0.04502313956618309,-0.006938350852578878
1745104046082263300,2.34026318359375,0.023260675370693207,0.016798488795757294,0.0158753152936697
1745104046092219100,2.35021923828125,-0.012485071085393429,-0.0057190703228116035,0.04157961159944534
1745104046102175200,2.36017529296875,-0.042649563401937485,-0.04356996342539787,0.0642993152141571
1745104046112130000,2.370130126953125,-0.06217879056930542,-0.06111779808998108,0.07726891338825226
1745104046122086100,2.380086181640625,-0.07408278435468674,-0.07521729916334152,0.06989426165819168
1745104046132042200,2.390042236328125,-0.07704022526741028,-0.08033429831266403,0.05370224639773369
1745104046141998000,2.399998046875,-0.06555274873971939,-0.06351165473461151,0.03471863269805908
1745104046151953200,2.409953125,-0.042324651032686234,-0.04442451894283295,0.015788083896040916
1745104046161909000,2.419908935546875,-0.014721670188009739,-0.016839902848005295,-0.0043312315829098225
1745104046171865300,2.429865234375,0.014463911764323711,0.018164420500397682,-0.03288804367184639
1745104046181821200,2.4398212890625,0.045146696269512177,0.044968921691179276,-0.056547485291957855
1745104046191776300,2.4497763671875,0.070061095058918,0.06239425018429756,-0.0687093436717987
1745104046201732000,2.459732177734375,0.07794377952814102,0.07733798772096634,-0.07096248865127563
1745104046211688000,2.46968798828125,0.07388751953840256,0.07758007198572159,-0.061358604580163956
1745104046221644300,2.479644287109375,0.06633210182189941,0.05870171636343002,-0.04890463128685951
1745104046231599000,2.48959912109375,0.042380958795547485,0.03920045495033264,-0.03478747978806496
1745104046241555200,2.49955517578125,0.011329630389809608,0.012143757194280624,-0.01087952684611082
1745104046251511000,2.509510986328125,-0.02193671278655529,-0.022980939596891403,0.020192639902234077
1745104046261466400,2.51946630859375,-0.04724930226802826,-0.04782749339938164,0.04801559820771217
1745104046271422200,2.529422119140625,-0.06605575233697891,-0.06698973476886749,0.0562727265059948
1745104046281378300,2.53937841796875,-0.07826502621173859,-0.07970835268497467,0.06410447508096695
1745104046291334100,2.549334228515625,-0.0761808380484581,-0.07178092002868652,0.06335293501615524
1745104046301289000,2.5592890625,-0.060063887387514114,-0.05459447577595711,0.056767504662275314
1745104046311245300,2.569245361328125,-0.03540674224495888,-0.036528922617435455,0.042646624147892
1745104046321201200,2.579201171875,-0.005753846373409033,-0.0017800084315240383,0.02186005190014839
1745104046331157200,2.5891572265625,0.022454621270298958,0.028549136593937874,-0.0075899832881987095
1745104046341112000,2.599112060546875,0.04998240992426872,0.04626597836613655,-0.03235650807619095
1745104046351068200,2.609068115234375,0.07046131789684296,0.06670866906642914,-0.05276031419634819
1745104046361024300,2.619024169921875,0.07388057559728622,0.07855036109685898,-0.06025080010294914
1745104046370979000,2.62897900390625,0.06918488442897797,0.0662154033780098,-0.06281329691410065
1745104046380935200,2.63893505859375,0.056048668920993805,0.05328640341758728,-0.06317039579153061
1745104046390891000,2.64889111328125,0.03361606225371361,0.02982555329799652,-0.055007800459861755
1745104046400847000,2.65884716796875,0.003126540221273899,-0.004634851589798927,-0.03278809413313866
1745104046410802200,2.66880224609375,-0.02662096917629242,-0.027985980734229088,-0.006177257746458054
1745104046420758300,2.67875830078125,-0.0506853349506855,-0.05279950797557831,0.021678457036614418
1745104046430714000,2.688714111328125,-0.06791651993989944,-0.06891615688800812,0.04221782088279724
1745104046440670200,2.698670166015625,-0.07136261463165283,-0.07108423858880997,0.055331259965896606
1745104046450625300,2.708625244140625,-0.06698943674564362,-0.06292884051799774,0.06515992432832718
1745104046460581000,2.7185810546875,-0.047463081777095795,-0.049007266759872437,0.06877714395523071
1745104046470537200,2.728537109375,-0.02379716746509075,-0.022924531251192093,0.061445195227861404
1745104046480492000,2.738491943359375,0.004814157262444496,0.008359292522072792,0.045927565544843674
1745104046490448100,2.7484482421875,0.027303487062454224,0.03247341886162758,0.0200195349752903
1745104046500404200,2.758404296875,0.05187949538230896,0.05120173469185829,-0.00773870712146163
1745104046510360300,2.7683603515625,0.06868670880794525,0.0665692463517189,-0.030712200328707695
1745104046520315100,2.778315185546875,0.06876819580793381,0.06398304551839828,-0.05075807869434357
1745104046530271000,2.78827099609375,0.057863086462020874,0.05869800224900246,-0.06684330105781555
1745104046540227000,2.79822705078125,0.042367566376924515,0.041605960577726364,-0.07675067335367203
1745104046550183200,2.80818310546875,0.020147746428847313,0.010278401896357536,-0.07338736206293106
1745104046560138200,2.81813818359375,-0.008018039166927338,-0.014364290982484818,-0.058409832417964935
1745104046570094000,2.828093994140625,-0.03572210669517517,-0.032285235822200775,-0.03720707818865776
1745104046580050200,2.83805029296875,-0.054036665707826614,-0.054786283522844315,-0.00834373664110899
1745104046590006000,2.848006103515625,-0.06470688432455063,-0.06588500738143921,0.016979195177555084
1745104046599961000,2.857961181640625,-0.060878004878759384,-0.060927361249923706,0.04158478230237961
1745104046609917200,2.867917236328125,-0.055635303258895874,-0.050505347549915314,0.05989401787519455
1745104046619873000,2.877873046875,-0.03643505275249481,-0.03271709755063057,0.07554895430803299
1745104046629828000,2.887828125,-0.012313737533986568,-0.005495063494890928,0.07685443758964539
1745104046639784200,2.8977841796875,0.012731223367154598,0.014969155192375183,0.06692453473806381
1745104046649740300,2.907740234375,0.032492946833372116,0.034948453307151794,0.04697079956531525
1745104046659696000,2.917696044921875,0.05105060711503029,0.05531199276447296,0.021810170263051987
1745104046669651200,2.927651123046875,0.0564538948237896,0.05855545774102211,-0.0011209775693714619
1745104046679607000,2.93760693359375,0.05678915977478027,0.05339296534657478,-0.025061650201678276
1745104046689563400,2.9475634765625,0.04480094090104103,0.04634144529700279,-0.05215558782219887
1745104046699519200,2.957519287109375,0.026788391172885895,0.02162763476371765,-0.06996190547943115
1745104046709474000,2.96747412109375,0.00461198203265667,-0.0007546369452029467,-0.07932984083890915
1745104046719430100,2.97743017578125,-0.017324715852737427,-0.020005878061056137,-0.07295164465904236
1745104046729386000,2.987385986328125,-0.037957821041345596,-0.04006160795688629,-0.05699930712580681
1745104046739341300,2.99734130859375,-0.05019626393914223,-0.0547637939453125,-0.033688437193632126
1745104046749297200,3.007297119140625,-0.05033474788069725,-0.05601601302623749,-0.009677374735474586
1745104046759253200,3.017253173828125,-0.04935353249311447,-0.04716517776250839,0.01605999283492565
1745104046769209000,3.027208984375,-0.036978621035814285,-0.0357266329228878,0.0428876131772995
1745104046779164200,3.0371640625,-0.0169073473662138,-0.01559157483279705,0.06685125827789307
1745104046789120300,3.047120361328125,0.0013201251858845353,0.004114218987524509,0.08223500847816467
1745104046799076000,3.057076171875,0.019946210086345673,0.025033393874764442,0.07839077711105347
1745104046809032200,3.0670322265625,0.037891123443841934,0.04415808618068695,0.06192978471517563
1745104046818987000,3.076987060546875,0.044194843620061874,0.04781370237469673,0.04303259402513504
1745104046828943400,3.086943359375,0.04790249839425087,0.04541632533073425,0.018526453524827957
1745104046838899200,3.096899169921875,0.03608746826648712,0.04548728093504906,-0.01079624518752098
1745104046848854000,3.10685400390625,0.023159421980381012,0.025876030325889587,-0.04056505858898163
1745104046858810000,3.11681005859375,0.009159176610410213,0.0044878642074763775,-0.06352987885475159
1745104046868766000,3.126765869140625,-0.005443468224257231,-0.012240782380104065,-0.07886302471160889
1745104046878722300,3.136722412109375,-0.02811535820364952,-0.027547266334295273,-0.08162768185138702
1745104046888677000,3.146677001953125,-0.03744254633784294,-0.04185030609369278,-0.07021257281303406
1745104046898633200,3.15663330078125,-0.03765236586332321,-0.04466493800282478,-0.053653959184885025
1745104046908589000,3.166589111328125,-0.036342356353998184,-0.041117340326309204,-0.027643665671348572
1745104046918545200,3.176545166015625,-0.030685801059007645,-0.03292599320411682,0.0010910440469160676
1745104046928500200,3.186500244140625,-0.016550807282328606,-0.015143265947699547,0.030576497316360474
1745104046938456000,3.1964560546875,-0.000321482599247247,0.004255095962435007,0.060307037085294724
1745104046948412200,3.206412109375,0.01705005019903183,0.017094461247324944,0.07864370197057724
1745104046958368000,3.216367919921875,0.02846512198448181,0.032613497227430344,0.08339448273181915
1745104046968323300,3.2263232421875,0.03585672751069069,0.04064931720495224,0.07397487759590149
1745104046978279200,3.236279052734375,0.03825678676366806,0.036082424223423004,0.060243427753448486
1745104046988235300,3.2462353515625,0.030999675393104553,0.035180941224098206,0.0369785875082016
1745104046998190000,3.256190185546875,0.019504666328430176,0.023139407858252525,0.008183575235307217
1745104047008146000,3.26614599609375,0.005527863744646311,0.0033297501504421234,-0.022546108812093735
1745104047018102300,3.276102294921875,-0.008116022683680058,-0.011650101281702518,-0.05374735966324806
1745104047028058000,3.28605810546875,-0.021376434713602066,-0.0214417465031147,-0.0748574435710907
1745104047038013200,3.29601318359375,-0.03167774900794029,-0.04110343009233475,-0.0845554992556572
1745104047047969000,3.305968994140625,-0.034111615270376205,-0.04044376686215401,-0.07954129576683044
1745104047057925000,3.315925048828125,-0.030878599733114243,-0.033985286951065063,-0.07060741633176804
1745104047067881200,3.325881103515625,-0.02514295093715191,-0.030867526307702065,-0.04895778000354767
1745104047077836300,3.335836181640625,-0.010742233134806156,-0.0118423942476511,-0.02262067049741745
1745104047087792000,3.345792236328125,0.0015882026636973023,0.005381599999964237,0.01685856282711029
1745104047097748000,3.355748046875,0.014855599030852318,0.01657642237842083,0.04807369410991669
1745104047107703300,3.365703369140625,0.02671199105679989,0.028287407010793686,0.07107355445623398
1745104047117659100,3.3756591796875,0.0337875559926033,0.039505504071712494,0.08449634164571762
1745104047127615200,3.385615234375,0.03293481096625328,0.034571729600429535,0.08322947472333908
1745104047137571000,3.395571044921875,0.02638949081301689,0.02935219369828701,0.07474590092897415
1745104047147526100,3.405526123046875,0.01956886798143387,0.02321227453649044,0.05528990924358368
1745104047157482200,3.415482177734375,0.002740410855039954,-0.0033299527131021023,0.028089292347431183
1745104047167438300,3.425438232421875,-0.0117474514991045,-0.011021694168448448,-0.007161639165133238
1745104047177394200,3.435394287109375,-0.02590939961373806,-0.022550953552126884,-0.04081345349550247
1745104047187349000,3.445348876953125,-0.029002130031585693,-0.041319578886032104,-0.0608833022415638
1745104047197305000,3.45530517578125,-0.032071422785520554,-0.03793789818882942,-0.07710035145282745
1745104047207261200,3.46526123046875,-0.030743038281798363,-0.03165816515684128,-0.08344267308712006
1745104047217217300,3.47521728515625,-0.024871258065104485,-0.027928348630666733,-0.0789702832698822
1745104047227172000,3.485172119140625,-0.007761246990412474,-0.012553919106721878,-0.06318918615579605
1745104047237128200,3.495128173828125,0.005940619856119156,0.007401983719319105,-0.03826092183589935
1745104047247084000,3.505083984375,0.0200420580804348,0.01971457526087761,-0.005383933894336224
1745104047257039000,3.5150390625,0.029263027012348175,0.035493336617946625,0.02433895505964756
1745104047266995200,3.5249951171875,0.04001101106405258,0.04170489311218262,0.051865655928850174
1745104047276951000,3.534950927734375,0.03552749380469322,0.03178257495164871,0.06780586391687393
1745104047286907100,3.5449072265625,0.02933351695537567,0.027771851047873497,0.07594608515501022
1745104047296862200,3.5548623046875,0.014186818152666092,0.023750219494104385,0.0735548660159111
1745104047306818300,3.564818359375,-0.00004937499761581421,0.0018393294885754585,0.062476109713315964
1745104047316774100,3.574774169921875,-0.011120795272290707,-0.013387804850935936,0.04231373220682144
1745104047326730200,3.584730224609375,-0.029303260147571564,-0.025415172800421715,0.010912397876381874
1745104047336685000,3.59468505859375,-0.037367165088653564,-0.03815639391541481,-0.016256442293524742
1745104047346641200,3.60464111328125,-0.03915015235543251,-0.0456039234995842,-0.039855778217315674
1745104047356597200,3.61459716796875,-0.03446875140070915,-0.035325489938259125,-0.05896636098623276
1745104047366552000,3.624552001953125,-0.02699645236134529,-0.03187403082847595,-0.06715531647205353
1745104047376508200,3.634508056640625,-0.012134416028857231,-0.013506477698683739,-0.07554267346858978
1745104047386464000,3.644464111328125,0.007881635800004005,0.0054722735658288,-0.06400399655103683
1745104047396420400,3.65442041015625,0.02323659509420395,0.017862947657704353,-0.04632239416241646
1745104047406375200,3.664375244140625,0.03286365792155266,0.032603807747364044,-0.020978422835469246
1745104047416331000,3.6743310546875,0.04141842573881149,0.04453422129154205,0.007024346385151148
1745104047426287000,3.684287109375,0.04303549602627754,0.038589779287576675,0.027987685054540634
1745104047436243000,3.694242919921875,0.03555416688323021,0.03230328485369682,0.04897213727235794
1745104047446198300,3.7041982421875,0.018930181860923767,0.032299287617206573,0.06070416048169136
1745104047456154000,3.714154052734375,0.004292567726224661,0.008408155292272568,0.06707324087619781
1745104047466110200,3.724110107421875,-0.010793440975248814,-0.014179179444909096,0.06530996412038803
1745104047476066000,3.734066162109375,-0.027432510629296303,-0.024086644873023033,0.04857341945171356
1745104047486021000,3.744021240234375,-0.04352333024144173,-0.03967359662055969,0.02581111714243889
1745104047495977200,3.753977294921875,-0.04606085270643234,-0.0447583831846714,0.004488453269004822
1745104047505933000,3.76393310546875,-0.042583297938108444,-0.04768839478492737,-0.017557194456458092
1745104047515888000,3.77388818359375,-0.035120826214551926,-0.03590928018093109,-0.03861995041370392
1745104047525844200,3.78384423828125,-0.0218066219240427,-0.019750015810132027,-0.053038571029901505
1745104047535800300,3.79380029296875,-0.0006469818763434887,0.000058794859796762466,-0.06191576272249222
1745104047545756200,3.803756103515625,0.021373098716139793,0.017282789573073387,-0.06383723765611649
1745104047555711200,3.813711181640625,0.03730359673500061,0.027183622121810913,-0.0521257184445858
1745104047565667000,3.8236669921875,0.04372527822852135,0.05055898800492287,-0.03815557435154915
1745104047575623200,3.833623046875,0.048506710678339005,0.04922548681497574,-0.012733419425785542
1745104047585579300,3.843579345703125,0.04740416258573532,0.0427502766251564,0.006606722716242075
1745104047595534000,3.8535341796875,0.032336246222257614,0.040153853595256805,0.027389273047447205
1745104047605490200,3.863490234375,0.017187923192977905,0.01641230471432209,0.04657148942351341
1745104047615446000,3.873446044921875,-0.004227022174745798,-0.0035259707365185022,0.05669929459691048
1745104047625401300,3.8834013671875,-0.023218823596835136,-0.022144662216305733,0.0613371878862381
1745104047635357200,3.893357177734375,-0.04019119217991829,-0.039657726883888245,0.05699171498417854
1745104047645313300,3.903313232421875,-0.04928695410490036,-0.04962966591119766,0.04294833168387413
1745104047655269000,3.91326904296875,-0.050829507410526276,-0.05267862603068352,0.02216811291873455
1745104047665224200,3.92322412109375,-0.04495537653565407,-0.043989263474941254,0.0033518157433718443
1745104047675180500,3.9331806640625,-0.03223445639014244,-0.03522025793790817,-0.01588892564177513
1745104047685136600,3.94313671875,-0.01677107810974121,-0.008698634803295135,-0.031977880746126175
1745104047695092500,3.953092529296875,0.00922318734228611,0.008005604147911072,-0.047582510858774185
1745104047705047600,3.963047607421875,0.030721019953489304,0.022604255005717278,-0.05614776909351349
1745104047715003400,3.97300341796875,0.04446880519390106,0.04601062089204788,-0.053697437047958374
1745104047724959500,3.98295947265625,0.051167722791433334,0.052339889109134674,-0.04396704584360123
1745104047734915600,3.99291552734375,0.052481286227703094,0.051890045404434204,-0.03277219459414482
1745104047744870400,4.002870361328125,0.04554295167326927,0.04522468522191048,-0.013159075751900673
1745104047754826500,4.012826416015625,0.02970503270626068,0.030317356809973717,0.00013265875168144703
1745104047764782300,4.0227822265625,0.008308930322527885,0.005823998246341944,0.021646739915013313
1745104047774737700,4.032737548828125,-0.014015709049999714,-0.012032422237098217,0.03823019191622734
1745104047784693500,4.042693603515625,-0.032233063131570816,-0.027894476428627968,0.05260700359940529
1745104047794649600,4.052649658203125,-0.04732580855488777,-0.049290433526039124,0.055859487503767014
1745104047804605400,4.06260546875,-0.054562415927648544,-0.050567951053380966,0.04917601868510246
1745104047814560500,4.072560546875,-0.05439166724681854,-0.05115032568573952,0.0367240272462368
1745104047824516600,4.0825166015625,-0.040634043514728546,-0.04876413196325302,0.024289725348353386
1745104047834472400,4.092472412109375,-0.028493527323007584,-0.02392403595149517,0.00615303311496973
1745104047844428500,4.102428466796875,-0.007110473699867725,-0.0009430863428860903,-0.013229984790086746
1745104047854383400,4.11238330078125,0.01650428958237171,0.014087630435824394,-0.03267113119363785
1745104047864339700,4.122339599609375,0.036971211433410645,0.03452259674668312,-0.0457933247089386
1745104047874295600,4.132295654296875,0.047912824898958206,0.04983721300959587,-0.05240413546562195
1745104047884250600,4.142250732421875,0.052778951823711395,0.049382347613573074,-0.054122406989336014
1745104047894206500,4.15220654296875,0.05150999873876572,0.051098547875881195,-0.043525006622076035
1745104047904162600,4.16216259765625,0.04370427131652832,0.03854786977171898,-0.03279246762394905
1745104047914118700,4.17211865234375,0.020715633407235146,0.021994732320308685,-0.015782024711370468
1745104047924073500,4.182073486328125,-0.00000722263939678669,0.0011752042919397354,0.0020355889573693275
1745104047934029600,4.192029541015625,-0.020404933020472527,-0.01775982230901718,0.018981359899044037
1745104047943985400,4.2019853515625,-0.037366073578596115,-0.040287766605615616,0.03848129138350487
1745104047953941500,4.21194140625,-0.05153096094727516,-0.048696715384721756,0.04760494828224182
1745104047963896600,4.221896484375,-0.05508148670196533,-0.05117025598883629,0.04863958805799484
1745104047973852700,4.231852783203125,-0.05132565647363663,-0.04930892959237099,0.048256706446409225
1745104047983808500,4.24180859375,-0.03595602139830589,-0.03829595819115639,0.03936734050512314
1745104047993764600,4.2517646484375,-0.022097177803516388,-0.016579577699303627,0.027793847024440765
1745104048003719700,4.2617197265625,0.00011305208317935467,0.00045692967250943184,0.010126703418791294
1745104048013675500,4.271675537109375,0.020540088415145874,0.02482587844133377,-0.009628405794501305
1745104048023631600,4.281631591796875,0.04097292572259903,0.0421564020216465,-0.024333849549293518
1745104048033586400,4.29158642578125,0.04976343736052513,0.04755472019314766,-0.03820476308465004
1745104048043542500,4.30154248046875,0.05100873112678528,0.05572982504963875,-0.04881453141570091
1745104048053498600,4.31149853515625,0.04633871838450432,0.04412277787923813,-0.04912057891488075
1745104048063454700,4.321454833984375,0.03256138786673546,0.03173401951789856,-0.046308547258377075
1745104048073409500,4.331409423828125,0.01499550137668848,0.014318977482616901,-0.03840870037674904
1745104048083365400,4.341365478515625,-0.005959581583738327,-0.009328029118478298,-0.02059135213494301
1745104048093321500,4.351321533203125,-0.026347335427999496,-0.023358287289738655,-0.004008362535387278
1745104048103277600,4.361277587890625,-0.04172389581799507,-0.044894739985466,0.01589849963784218
1745104048113232600,4.371232666015625,-0.050506219267845154,-0.04569997638463974,0.03311469778418541
1745104048123188500,4.3811884765625,-0.0497024767100811,-0.05079593509435654,0.048796720802783966
1745104048133144600,4.39114453125,-0.04385537654161453,-0.04286101460456848,0.052919164299964905
1745104048143100400,4.401100341796875,-0.030204545706510544,-0.02287186309695244,0.047925472259521484
1745104048153055500,4.411055419921875,-0.008173035457730293,-0.009634517133235931,0.04116309434175491
1745104048163011600,4.421011474609375,0.007767049130052328,0.006676811259239912,0.028475264087319374
1745104048172967400,4.430967529296875,0.027422314509749413,0.030019162222743034,0.011736569926142693
1745104048182922500,4.440922607421875,0.04027872160077095,0.03999456763267517,-0.0059649283066391945
1745104048192878600,4.450878662109375,0.04643616825342178,0.045558862388134,-0.026980197057127953
1745104048202834700,4.460834716796875,0.045127492398023605,0.05082819238305092,-0.042878467589616776
1745104048212790500,4.47079052734375,0.037651628255844116,0.03693653270602226,-0.05062155798077583
1745104048222745300,4.480745361328125,0.02485939860343933,0.019925592467188835,-0.05438540503382683
1745104048232701400,4.490701416015625,0.006746986880898476,0.009110871702432632,-0.04897097125649452
1745104048242657500,4.500657470703125,-0.013740711845457554,-0.0162980817258358,-0.03645544499158859
1745104048252613600,4.510613525390625,-0.0270242802798748,-0.030002065002918243,-0.02299453876912594
1745104048262568400,4.520568359375,-0.03845217078924179,-0.037057314068078995,-0.0011845811968669295
1745104048272524500,4.530524658203125,-0.046162500977516174,-0.04005426540970802,0.017965517938137054
1745104048282480400,4.54048046875,-0.04137919470667839,-0.043367236852645874,0.03474290296435356
1745104048292435700,4.550435791015625,-0.032317858189344406,-0.030571559444069862,0.04449905827641487
1745104048302391600,4.5603916015625,-0.021105151623487473,-0.016638167202472687,0.05214259773492813
1745104048312347600,4.57034765625,-0.005458329804241657,-0.001062578521668911,0.05595853924751282
1745104048322303500,4.580303466796875,0.016009144484996796,0.018300998955965042,0.04382704198360443
1745104048332258600,4.590258544921875,0.02924884669482708,0.029792025685310364,0.033235713839530945
1745104048342214700,4.600214599609375,0.03603671118617058,0.036277886480093,0.01364203542470932
1745104048352170500,4.61017041015625,0.03810545429587364,0.044912390410900116,-0.010289928875863552
1745104048362126600,4.620126708984375,0.035477444529533386,0.03500036895275116,-0.03010624460875988
1745104048372081400,4.630081298828125,0.026286333799362183,0.02359101176261902,-0.043865956366062164
1745104048382037800,4.640037841796875,0.013477327302098274,0.011991878971457481,-0.05251989886164665
1745104048391993600,4.64999365234375,-0.0033991560339927673,0.0009171147830784321,-0.05776768922805786
1745104048401949700,4.65994970703125,-0.015854228287935257,-0.02240658365190029,-0.05360010638833046
1745104048411904500,4.669904541015625,-0.026379305869340897,-0.033324744552373886,-0.03782620280981064
1745104048421860400,4.6798603515625,-0.03638666495680809,-0.03138916194438934,-0.021437112241983414
1745104048431816700,4.689816650390625,-0.03612856566905975,-0.03504742681980133,0.0008301001507788897
1745104048441771500,4.699771484375,-0.029826991260051727,-0.03542293235659599,0.021194759756326675
1745104048451727600,4.7097275390625,-0.0182803925126791,-0.01848636567592621,0.0403435155749321
1745104048461683500,4.719683349609375,-0.010695441626012325,-0.010485962964594364,0.05579517409205437
1745104048471639600,4.7296396484375,0.004175976850092411,0.00977005809545517,0.06100144609808922
1745104048481594600,4.7395947265625,0.019709927961230278,0.020818181335926056,0.055624525994062424
1745104048491550500,4.749550537109375,0.02758832648396492,0.026449427008628845,0.047249920666217804
1745104048501506600,4.759506591796875,0.0323798842728138,0.03416034206748009,0.028521239757537842
1745104048511462400,4.76946240234375,0.0291428342461586,0.03485080227255821,0.0056130653247237206
1745104048521417700,4.779417724609375,0.023825298994779587,0.020593300461769104,-0.013387258164584637
1745104048531373600,4.78937353515625,0.014448854140937328,0.009166054427623749,-0.034514956176280975
1745104048541329700,4.79932958984375,0.0027527837082743645,0.0019374354742467403,-0.05211605131626129
1745104048551285500,4.809285400390625,-0.011294597759842873,-0.012759540230035782,-0.060293667018413544
1745104048561240300,4.819240234375,-0.020578376948833466,-0.02436958998441696,-0.05957195162773132
1745104048571196700,4.82919677734375,-0.02621741034090519,-0.027957098558545113,-0.05020236596465111
1745104048581152500,4.839152587890625,-0.02964569814503193,-0.02818266861140728,-0.03367265686392784
1745104048591107600,4.849107666015625,-0.026914792135357857,-0.02781054377555847,-0.011185782961547375
1745104048601063400,4.8590634765625,-0.01850080117583275,-0.014934159815311432,0.009533610194921494
1745104048611019500,4.86901953125,-0.004843344446271658,-0.005789671093225479,0.03288763761520386
1745104048620975600,4.8789755859375,0.004442831967025995,0.0008799494244158268,0.049605630338191986
1745104048630930400,4.888930419921875,0.016282664611935616,0.020694492384791374,0.05931141600012779
1745104048640886500,4.898886474609375,0.02148568071424961,0.024196814745664597,0.06022035330533981
1745104048650842400,4.90884228515625,0.026346052065491676,0.021305235102772713,0.05399142950773239
1745104048660798500,4.918798583984375,0.025083715096116066,0.030830828472971916,0.036330945789813995
1745104048670753000,4.9287529296875,0.016948023810982704,0.018865512683987617,0.01865128055214882
1745104048680709000,4.938709228515625,0.008534299209713936,0.011684564873576164,-0.0024505408946424723
1745104048690665000,4.9486650390625,0.0002936080563813448,0.0014912462793290615,-0.026030082255601883
1745104048700621000,4.95862109375,-0.00949271023273468,-0.01059391163289547,-0.043135032057762146
1745104048710576000,4.968576171875,-0.016274238005280495,-0.02344735525548458,-0.05440281331539154
1745104048720532000,4.978531982421875,-0.02334786020219326,-0.02018631622195244,-0.060694798827171326
1745104048730488000,4.988488037109375,-0.021814890205860138,-0.024185355752706528,-0.056062549352645874
1745104048740443000,4.99844287109375,-0.019575972110033035,-0.025683648884296417,-0.04538673534989357
1745104048750399200,5.008399169921875,-0.013514670543372631,-0.009387730620801449,-0.02642737329006195
1745104048760355000,5.01835498046875,-0.00520667340606451,-0.007435100618749857,-0.00245945667847991
1745104048770311200,5.028311279296875,0.008745474740862846,0.005864383652806282,0.02309880033135414
1745104048780266000,5.038265869140625,0.015608707442879677,0.0171577837318182,0.03838161751627922
1745104048790221800,5.048221923828125,0.020447518676519394,0.02204437181353569,0.053785186260938644
1745104048800178200,5.05817822265625,0.023998044431209564,0.02133011259138584,0.060708608478307724
1745104048810134000,5.068134033203125,0.01923857443034649,0.02488132007420063,0.05547504499554634
1745104048820089000,5.078089111328125,0.017709653824567795,0.016258537769317627,0.05054313689470291
1745104048830045000,5.088044921875,0.007421344053000212,0.002924998290836811,0.033243730664253235
1745104048840001000,5.0980009765625,-0.0022147714626044035,0.0015563997440040112,0.0083999028429389
1745104048849956900,5.107956787109375,-0.012734388001263142,-0.013441549614071846,-0.011177764274179935
1745104048859912000,5.117911865234375,-0.02050762064754963,-0.021097339689731598,-0.029900850728154182
1745104048869868000,5.127867919921875,-0.021267591044306755,-0.025378551334142685,-0.04941203072667122
1745104048879824000,5.137823974609375,-0.022000227123498917,-0.02384510450065136,-0.059684108942747116
1745104048889779200,5.147779296875,-0.01869397982954979,-0.02018546313047409,-0.05669408664107323
1745104048899735000,5.157735107421875,-0.013580710627138615,-0.010110723786056042,-0.052765123546123505
1745104048909691100,5.167691162109375,0.0026803265791386366,-0.0006313479971140623,-0.035710521042346954
1745104048919647000,5.17764697265625,0.01065276563167572,0.0035527446307241917,-0.015256110578775406
1745104048929602000,5.18760205078125,0.018007541075348854,0.01701350510120392,0.0005837090429849923
1745104048939558100,5.19755810546875,0.022836118936538696,0.02556758001446724,0.020781921222805977
1745104048949514200,5.20751416015625,0.026841292157769203,0.02305719442665577,0.040933892130851746
1745104048959470000,5.217469970703125,0.020192710682749748,0.024048157036304474,0.051709577441215515
1745104048969425000,5.2274248046875,0.016409169882535934,0.022418411448597908,0.05453062430024147
1745104048979381000,5.237381103515625,0.006999423261731863,0.006044232286512852,0.049430668354034424
1745104048989337000,5.247337158203125,-0.0022748392075300217,-0.003023697528988123,0.037236571311950684
1745104048999292200,5.257292236328125,-0.01294479425996542,-0.012240897864103317,0.02452184073626995
1745104049009248000,5.267248046875,-0.02625710889697075,-0.025691714137792587,0.003992891870439053
1745104049019204000,5.2772041015625,-0.023604866117239,-0.02606668695807457,-0.01530543901026249
1745104049029160000,5.287159912109375,-0.024403735995292664,-0.03054860234260559,-0.03610033541917801
1745104049039115000,5.297114990234375,-0.02395712397992611,-0.027521120384335518,-0.043844807893037796
1745104049049071000,5.307071044921875,-0.013506432995200157,-0.01146223396062851,-0.054066795855760574
1745104049059027000,5.31702685546875,-0.003253794740885496,-0.0023731309920549393,-0.0501231886446476
1745104049068983000,5.326983154296875,0.009535521268844604,0.0037041031755506992,-0.04020071029663086
1745104049078938000,5.336938232421875,0.018510906025767326,0.023636266589164734,-0.02667291834950447
1745104049088894200,5.346894287109375,0.02380448952317238,0.02619972452521324,-0.012942919507622719
1745104049098850000,5.35685009765625,0.027140365913510323,0.028442639857530594,0.009451335296034813
1745104049108806100,5.36680615234375,0.029290873557329178,0.028339894488453865,0.03233439102768898
1745104049118761000,5.376760986328125,0.018019577488303185,0.019569039344787598,0.04637004807591438
1745104049128717000,5.386717041015625,0.00892327819019556,0.015397943556308746,0.05107893794775009
1745104049138673200,5.396673095703125,-0.0026023501995950937,-0.003828748594969511,0.05225898697972298
1745104049148628000,5.4066279296875,-0.01182066835463047,-0.010643478482961655,0.04156804829835892
1745104049158584000,5.416583984375,-0.025273358449339867,-0.02727891504764557,0.03435194864869118
1745104049168540000,5.426539794921875,-0.032456960529088974,-0.03127700462937355,0.014822677709162235
1745104049178496000,5.43649609375,-0.029089923948049545,-0.025904079899191856,-0.0059563699178397655
1745104049188451000,5.446451171875,-0.024473002180457115,-0.03543758764863014,-0.023599108681082726
1745104049198407000,5.456406982421875,-0.018041735514998436,-0.021092737093567848,-0.03834982588887215
1745104049208363000,5.466363037109375,-0.006693816743791103,-0.0017096383962780237,-0.04838208109140396
1745104049218318800,5.47631884765625,0.002652547089383006,-0.003336829598993063,-0.04919913783669472
1745104049228274200,5.486274169921875,0.02180895395576954,0.01857614889740944,-0.048555005341768265
1745104049238230000,5.49622998046875,0.02735685184597969,0.026476414874196053,-0.035857588052749634
1745104049248186000,5.50618603515625,0.030688993632793427,0.03351003676652908,-0.022700350731611252
1745104049258142000,5.516141845703125,0.0346887931227684,0.0356094054877758,-0.0029881647787988186
1745104049268097000,5.526096923828125,0.028432022780179977,0.027505159378051758,0.014328033663332462
1745104049278053000,5.53605322265625,0.01660226099193096,0.02017800509929657,0.030725914984941483
1745104049288009000,5.546009033203125,0.002530124504119158,0.0054036411456763744,0.04372731223702431
1745104049297965000,5.555965087890625,-0.010408843867480755,-0.007487656082957983,0.04716705158352852
1745104049307920000,5.565919921875,-0.02189994417130947,-0.025955699384212494,0.04547042027115822
1745104049317876200,5.575876220703125,-0.0296460147947073,-0.032107871025800705,0.039490025490522385
1745104049327832000,5.58583203125,-0.03726214915513992,-0.030580291524529457,0.0244830884039402
1745104049337787000,5.595786865234375,-0.03507489711046219,-0.04177702218294144,0.01054383534938097
1745104049347743000,5.605742919921875,-0.02618805505335331,-0.02657623216509819,-0.010640514083206654
1745104049357698800,5.61569873046875,-0.017974866554141045,-0.013181064277887344,-0.026792319491505623
1745104049367655000,5.625655029296875,-0.003060637041926384,0.0010353680700063705,-0.03530389443039894
1745104049377610000,5.63560986328125,0.011056779883801937,0.01131969690322876,-0.03970343619585037
1745104049387566000,5.645566162109375,0.02785094641149044,0.025669395923614502,-0.041673265397548676
1745104049397522000,5.65552197265625,0.03703965246677399,0.031033534556627274,-0.038240183144807816
1745104049407478000,5.66547802734375,0.034152187407016754,0.037119582295417786,-0.03243226930499077
1745104049417433000,5.67543310546875,0.035530105233192444,0.037598952651023865,-0.01237627025693655
1745104049427389200,5.68538916015625,0.027136601507663727,0.022966580465435982,0.002431634347885847
1745104049437345000,5.695344970703125,0.012727834284305573,0.01254909299314022,0.014583372510969639
1745104049447301000,5.705301025390625,-0.0011591832153499126,0.0004671965725719929,0.027158159762620926
1745104049457256200,5.715256103515625,-0.015319210477173328,-0.02223891392350197,0.039340790361166
1745104049467212000,5.7252119140625,-0.028457967564463615,-0.03077857568860054,0.04394172504544258
1745104049477168000,5.735168212890625,-0.038755614310503006,-0.032798316329717636,0.042704686522483826
1745104049487123000,5.745123046875,-0.03963384032249451,-0.037593092769384384,0.032822467386722565
1745104049497079000,5.7550791015625,-0.037150174379348755,-0.03685007244348526,0.021048635244369507
1745104049507035100,5.76503515625,-0.02265361323952675,-0.02309407852590084,0.004162773489952087
1745104049516991200,5.7749912109375,-0.011795107275247574,-0.012357011437416077,-0.009732536040246487
1745104049526946000,5.784946044921875,0.0022317846305668354,0.0019941870123147964,-0.020728813484311104
1745104049536902000,5.79490185546875,0.01909412257373333,0.022135939449071884,-0.034697093069553375
1745104049546858000,5.80485791015625,0.029221834614872932,0.028790157288312912,-0.03727015480399132
1745104049556814000,5.81481396484375,0.03827605023980141,0.038203634321689606,-0.0396808460354805
1745104049566769200,5.82476904296875,0.03880789875984192,0.042888566851615906,-0.03633984178304672
1745104049576725000,5.83472509765625,0.03642250597476959,0.03045320324599743,-0.02554631605744362
1745104049586681000,5.84468115234375,0.022129321470856667,0.020863957703113556,-0.013858235441148281
1745104049596637000,5.854636962890625,0.00687713036313653,0.009360967203974724,0.0012823682045564055
1745104049606592000,5.864592041015625,-0.008562562055885792,-0.004470060113817453,0.01545990165323019
1745104049616548000,5.874548095703125,-0.022868530824780464,-0.026836086064577103,0.026883799582719803
1745104049626504000,5.88450390625,-0.0323437862098217,-0.030604135245084763,0.034142620861530304
1745104049636460000,5.8944599609375,-0.040007032454013824,-0.03915075212717056,0.04020664095878601
1745104049646415000,5.9044150390625,-0.0394834503531456,-0.038473986089229584,0.037427742034196854
1745104049656371200,5.91437109375,-0.02978901006281376,-0.028908181935548782,0.03096744790673256
1745104049666327000,5.9243271484375,-0.018789609894156456,-0.019842403009533882,0.019957097247242928
1745104049676281900,5.93428173828125,-0.006009367294609547,-0.007216355763375759,0.009281551465392113
1745104049686237700,5.94423779296875,0.009591412730515003,0.013288485817611217,-0.005582420155405998
1745104049696194000,5.954194091796875,0.022696830332279205,0.023789063096046448,-0.02009717933833599
1745104049706150000,5.96414990234375,0.03428047150373459,0.029284581542015076,-0.03055470995604992
1745104049716105000,5.97410498046875,0.039493344724178314,0.039164379239082336,-0.038838207721710205
1745104049726060800,5.984060791015625,0.03795568272471428,0.03636110574007034,-0.04064548760652542
1745104049736016600,5.9940166015625,0.028419435024261475,0.026420854032039642,-0.0364302359521389
1745104049745973000,6.003972900390625,0.019722355529665947,0.019055671989917755,-0.028105081990361214
1745104049755927800,6.013927734375,0.0033194138668477535,0.0012551038525998592,-0.015051597729325294
1745104049765884000,6.0238837890625,-0.012675820849835873,-0.011093663983047009,0.00013356516137719154
1745104049775839700,6.03383984375,-0.02718179114162922,-0.026148246601223946,0.014543662779033184
1745104049785795800,6.0437958984375,-0.03079628199338913,-0.036967042833566666,0.024701286107301712
1745104049795751000,6.0537509765625,-0.037209440022706985,-0.03533399477601051,0.03132110461592674
1745104049805707000,6.06370703125,-0.03449242562055588,-0.036271873861551285,0.03620896860957146
1745104049815662800,6.073662841796875,-0.028386062011122704,-0.023927591741085052,0.034878455102443695
1745104049825619000,6.083618896484375,-0.017516925930976868,-0.014126583933830261,0.03239407762885094
1745104049835574000,6.093573974609375,-0.0008833539905026555,-0.0018912225496023893,0.022262612357735634
1745104049845529900,6.10352978515625,0.015333187766373158,0.01959564909338951,0.007267332635819912
1745104049855486000,6.11348583984375,0.02669130451977253,0.018911216408014297,-0.004847387783229351
1745104049865440800,6.123440673828125,0.034787777811288834,0.037490569055080414,-0.01901366002857685
1745104049875396900,6.13339697265625,0.034366730600595474,0.03739842027425766,-0.030724644660949707
1745104049885353000,6.14335302734375,0.030203966423869133,0.026904724538326263,-0.03703349456191063
1745104049895309000,6.15330908203125,0.02562093175947666,0.025482863187789917,-0.03835362195968628
1745104049905263900,6.163263916015625,0.013093192130327225,0.013102220371365547,-0.036385562270879745
1745104049915219700,6.1732197265625,-0.003975539468228817,-0.004911401774734259,-0.026221608743071556
1745104049925175800,6.18317578125,-0.0158839114010334,-0.01575390063226223,-0.01599820703268051
1745104049935132000,6.1931318359375,-0.02455330081284046,-0.027326665818691254,0.0018356519285589457
1745104049945087000,6.2030869140625,-0.032980550080537796,-0.03160788118839264,0.01630290597677231
1745104049955042800,6.213042724609375,-0.03570176661014557,-0.030451271682977676,0.02522103302180767
1745104049964999000,6.2229990234375,-0.026806624606251717,-0.025153011083602905,0.036276426166296005
1745104049974954800,6.232954833984375,-0.01797638088464737,-0.023684276267886162,0.04117424786090851
1745104049984909800,6.242909912109375,-0.009694965556263924,-0.0056589082814753056,0.03887998312711716
1745104049994866000,6.252865966796875,-0.0008295688312500715,0.01184658333659172,0.029378356412053108
1745104050004821800,6.26282177734375,0.014712123200297356,0.016928328201174736,0.019604889675974846
1745104050014777900,6.27277783203125,0.028426071628928185,0.020357146859169006,0.005874696187674999
1745104050024733000,6.28273291015625,0.031836505979299545,0.03426012396812439,-0.01040425430983305
1745104050034689000,6.29268896484375,0.027214860543608665,0.03241295740008354,-0.021790333092212677
1745104050044644900,6.302644775390625,0.021606964990496635,0.021774914115667343,-0.03288300707936287
1745104050054599700,6.312599609375,0.01964155212044716,0.01375480368733406,-0.04426109418272972
1745104050064555800,6.3225556640625,0.005211817566305399,0.005092861596494913,-0.045211080461740494
1745104050074512000,6.332511962890625,-0.008587084710597992,-0.008188589476048946,-0.04066160321235657
1745104050084468000,6.342468017578125,-0.016842931509017944,-0.015179624781012535,-0.030036594718694687
1745104050094422800,6.3524228515625,-0.021353792399168015,-0.025031456723809242,-0.01551943738013506
1745104050104379000,6.36237890625,-0.026990072801709175,-0.02789875492453575,0.0017258429434150457
1745104050114334700,6.372334716796875,-0.024418257176876068,-0.022698134183883667,0.018800167366862297
1745104050124290800,6.382290771484375,-0.02019241265952587,-0.025683948770165443,0.032440874725580215
1745104050134246000,6.392245849609375,-0.012558994814753532,-0.012884795665740967,0.04114887863397598
1745104050144201700,6.40220166015625,-0.005476462654769421,0.003347927238792181,0.04415043070912361
1745104050154157800,6.41215771484375,0.006793519482016563,0.008177836425602436,0.04173307865858078
1745104050164113700,6.42211376953125,0.020263152197003365,0.009194633923470974,0.03164184093475342
1745104050174069000,6.432069091796875,0.02595352940261364,0.02363482490181923,0.018252529203891754
1745104050184024800,6.44202490234375,0.02183682657778263,0.023096447810530663,0.002014127094298601
1745104050193981000,6.45198095703125,0.020351581275463104,0.020114772021770477,-0.014186414889991283
1745104050203936800,6.461936767578125,0.019110003486275673,0.01690368726849556,-0.02726755104959011
1745104050213892000,6.47189208984375,0.010716520249843597,0.001989983953535557,-0.0400262214243412
1745104050223848000,6.481847900390625,-0.003945961594581604,-0.0012022501323372126,-0.04389028251171112
1745104050233803800,6.4918037109375,-0.012870747596025467,-0.008329934440553188,-0.038675546646118164
1745104050243759900,6.501759765625,-0.016357650980353355,-0.018470466136932373,-0.03214177489280701
1745104050253714700,6.511714599609375,-0.020869845524430275,-0.0306022297590971,-0.01753140427172184
1745104050263671000,6.521671142578125,-0.022528473287820816,-0.010088277980685234,-0.005931166000664234
1745104050273627000,6.531626953125,-0.021376123651862144,-0.020393379032611847,0.013294725678861141
1745104050283582000,6.54158203125,-0.008181730285286903,-0.011804938316345215,0.027558110654354095
1745104050293537800,6.551537841796875,0.0003558314638212323,-0.0011584192980080843,0.03657690808176994
1745104050303494000,6.561493896484375,0.005827227607369423,0.004594877827912569,0.03944873809814453
1745104050313450000,6.571449951171875,0.012018544599413872,0.014783333986997604,0.04240671172738075
1745104050323404800,6.58140478515625,0.018502548336982727,0.013478707522153854,0.03455555811524391
1745104050333361000,6.59136083984375,0.021572640165686607,0.023579278960824013,0.024453656747937202
1745104050343316700,6.601316650390625,0.014980236068367958,0.012709949165582657,0.008467165753245354
1745104050353272800,6.61127294921875,0.014367975294589996,0.019034957513213158,-0.010935827158391476
1745104050363228000,6.621227783203125,0.00940859504044056,-0.0013464577496051788,-0.02003737911581993
1745104050373184000,6.63118408203125,-0.00042912206845358014,-0.0022676452063024044,-0.03556520491838455
1745104050383139800,6.641139892578125,-0.008105878718197346,-0.002129112370312214,-0.04207203909754753
1745104050393096000,6.651095947265625,-0.013938999734818935,-0.018179185688495636,-0.0426613986492157
1745104050403051000,6.661051025390625,-0.012311311438679695,-0.01803443767130375,-0.03935932368040085
1745104050413006800,6.6710068359375,-0.017020313069224358,-0.02122996374964714,-0.02858577109873295
1745104050422963000,6.680962890625,-0.016044771298766136,-0.008112815208733082,-0.014968739822506905
1745104050432917800,6.690917724609375,-0.011296621523797512,-0.006758864037692547,0.000632590614259243
1745104050442873900,6.700873779296875,0.00041858956683427095,-0.010226428508758545,0.021664926782250404
1745104050452830000,6.710829833984375,0.0053457035683095455,0.00954301469027996,0.03161635994911194
1745104050462786000,6.7207861328125,0.0029033005703240633,0.013653644360601902,0.04122966155409813
1745104050472740900,6.730740966796875,0.012478696182370186,0.015332234092056751,0.04603560268878937
1745104050482696700,6.74069677734375,0.02345520816743374,0.017778953537344933,0.0419967845082283
1745104050492652800,6.75065283203125,0.011833173222839832,0.011161264032125473,0.038525886833667755
1745104050502609000,6.76060888671875,0.004554533399641514,0.016936570405960083,0.023157786577939987
1745104050512564000,6.77056396484375,0.002216544235125184,0.011593736708164215,0.0072392732836306095
1745104050522519800,6.780519775390625,0.0004119268851354718,-0.011019041761755943,-0.010531737469136715
1745104050532476000,6.790475830078125,-0.006127731408923864,-0.008481048978865147,-0.028063593432307243
1745104050542431700,6.800431640625,-0.015498876571655273,-0.00586998974904418,-0.039492350071668625
1745104050552386800,6.81038671875,-0.016517801210284233,-0.01917860470712185,-0.043041810393333435
1745104050562343000,6.820343017578125,-0.009001514874398708,-0.014870642684400082,-0.0432572141289711
1745104050572298800,6.830298828125,-0.008638792671263218,-0.01519102044403553,-0.034435760229825974
1745104050582254800,6.8402548828125,-0.008685371838510036,-0.005199091974645853,-0.02706304006278515
1745104050592210000,6.8502099609375,-0.00023729237727820873,0.00047051161527633667,-0.005868006031960249
1745104050602166000,6.860166015625,0.00725417397916317,0.0043898290023207664,0.005994134582579136
1745104050612121900,6.870121826171875,0.011220153421163559,0.008008532226085663,0.02241145819425583
1745104050622076700,6.88007666015625,0.009229396469891071,0.020174145698547363,0.03039141558110714
1745104050632032800,6.89003271484375,0.017356298863887787,0.018496619537472725,0.03925788030028343
1745104050641988900,6.89998876953125,0.016310714185237885,0.009986680932343006,0.040746454149484634
1745104050651945000,6.909945068359375,0.008624032139778137,0.006363716907799244,0.03944603353738785
1745104050661899800,6.919899658203125,0.0008476153016090393,0.008244078606367111,0.025498591363430023
1745104050671856600,6.929856689453125,-0.007168232928961515,-0.006076537072658539,0.01650989055633545
1745104050681812500,6.9398125,-0.00886728148907423,-0.013202858157455921,-0.0031516498420387506
1745104050691768600,6.9497685546875,-0.01319891307502985,-0.013684091158211231,-0.015599796548485756
1745104050701723600,6.9597236328125,-0.018894409760832787,-0.018583444878458977,-0.02933036908507347
1745104050711679700,6.9696796875,-0.016476526856422424,-0.015261150896549225,-0.03853744640946388
1745104050721635600,6.979635498046875,-0.009420454502105713,-0.01276356540620327,-0.04342528432607651
1745104050731591700,6.989591796875,-0.003722088411450386,-0.010849550366401672,-0.041965339332818985
1745104050741546800,6.999546630859375,-0.0013380362652242184,0.002772404346615076,-0.03388286381959915
1745104050751502600,7.009502685546875,0.008603011257946491,0.011285731568932533,-0.020198745653033257
1745104050761458700,7.019458740234375,0.016983428969979286,0.006430828012526035,-0.003008750034496188
1745104050771414500,7.02941455078125,0.01699754409492016,0.017351387068629265,0.010831432417035103
1745104050781369600,7.03936962890625,0.014459898695349693,0.022679466754198074,0.022324062883853912
1745104050791325700,7.04932568359375,0.009587380103766918,0.012462249025702477,0.029269587248563766
1745104050801281800,7.05928173828125,0.012337586842477322,0.009940318763256073,0.03525228798389435
1745104050811236600,7.069236572265625,0.0013834720011800528,0.0028278143145143986,0.0381559319794178
1745104050821192400,7.0791923828125,-0.01002893690019846,0.00041964510455727577,0.03428660333156586
1745104050831148500,7.0891484375,-0.013826604001224041,-0.015252524986863136,0.02492878958582878
1745104050841104400,7.0991044921875,-0.01229164469987154,-0.011787171475589275,0.00788255874067545
1745104050851059700,7.109059814453125,-0.02140338346362114,-0.02417912520468235,-0.004019907210022211
1745104050861015600,7.119015625,-0.019115479663014412,-0.013600213453173637,-0.01568739116191864
1745104050870971600,7.1289716796875,-0.012235736474394798,-0.011123472824692726,-0.027943525463342667
1745104050880927500,7.138927490234375,-0.006423356011509895,-0.011809105053544044,-0.03578576073050499
1745104050890882800,7.1488828125,0.00033148564398288727,-0.001151134492829442,-0.037260886281728745
1745104050900838700,7.158838623046875,0.007444303948432207,0.009199540130794048,-0.0306700486689806
1745104050910794500,7.16879443359375,0.01397304330021143,0.01633627898991108,-0.02689501829445362
1745104050920750600,7.17875048828125,0.021201150491833687,0.01475618313997984,-0.014604084193706512
1745104050930705700,7.18870556640625,0.02265976369380951,0.022336870431900024,-0.0035660811699926853
1745104050940661800,7.198661865234375,0.014597545377910137,0.022965308278799057,0.010031351819634438
1745104050950617600,7.20861767578125,0.015107006765902042,0.009150957688689232,0.023433443158864975
1745104050960573700,7.21857373046875,0.007405627518892288,0.011518416926264763,0.0333612859249115
1745104050970528500,7.228528564453125,-0.001593993161804974,-0.005389992147684097,0.03613656759262085
1745104050980484600,7.238484619140625,-0.012889279052615166,-0.010209799744188786,0.032333288341760635
1745104050990440700,7.248440673828125,-0.01744195446372032,-0.012447920627892017,0.026656493544578552
1745104051000396800,7.258396728515625,-0.01981130987405777,-0.02582130953669548,0.017141923308372498
1745104051010351600,7.2683515625,-0.022714953869581223,-0.022731509059667587,0.004387779626995325
1745104051020307500,7.278307373046875,-0.01815485954284668,-0.012660421431064606,-0.008610663935542107
1745104051030263600,7.288263671875,-0.01160241849720478,-0.011402344331145287,-0.01566164940595627
1745104051040219600,7.2982197265625,-0.002995844464749098,-0.00789051316678524,-0.02549928054213524
1745104051050174700,7.3081748046875,0.007098601199686527,0.004276670981198549,-0.029504407197237015
1745104051060130600,7.318130615234375,0.011383380740880966,0.014424338936805725,-0.03308804705739021
1745104051070086700,7.328086669921875,0.020230401307344437,0.01866355910897255,-0.027006715536117554
1745104051080041700,7.338041748046875,0.022876502946019173,0.021476486697793007,-0.022254372015595436
1745104051089997600,7.34799755859375,0.023078370839357376,0.02329915389418602,-0.011578558944165707
1745104051099953700,7.35795361328125,0.016877980902791023,0.015907324850559235,0.0016142972745001316
1745104051109909500,7.367909423828125,0.012381233274936676,0.012674513272941113,0.01278306171298027
1745104051119864600,7.377864501953125,0.00537475198507309,0.001411545556038618,0.02358604222536087
1745104051129820700,7.387820556640625,-0.007587386295199394,-0.007628554943948984,0.03025379776954651
1745104051139776800,7.39777685546875,-0.019450247287750244,-0.010690556839108467,0.028496360406279564
1745104051149732600,7.407732666015625,-0.021919263526797295,-0.019769540056586266,0.027542682364583015
1745104051159687400,7.4176875,-0.025495877489447594,-0.030582068488001823,0.023787423968315125
1745104051169643500,7.4276435546875,-0.02293604612350464,-0.02195502445101738,0.017053622752428055
1745104051179599600,7.437599609375,-0.018693063408136368,-0.014306237921118736,0.00210884609259665
1745104051189555700,7.4475556640625,-0.011293469928205013,-0.0161997452378273,-0.008915841579437256
1745104051199510500,7.457510498046875,0.0010982330422848463,-0.0015993271954357624,-0.017820054665207863
1745104051209466600,7.467466552734375,0.00801472831517458,0.011335646733641624,-0.024326423183083534
1745104051219422500,7.47742236328125,0.013938906602561474,0.012584651820361614,-0.030626151710748672
1745104051229378800,7.48737890625,0.023369425907731056,0.023376047611236572,-0.03164427727460861
1745104051239333600,7.497333740234375,0.025525012984871864,0.026124179363250732,-0.026424994692206383
1745104051249289500,7.50728955078125,0.022634951397776604,0.020305173471570015,-0.021639294922351837
1745104051259245600,7.51724560546875,0.01490583922713995,0.02057141438126564,-0.012356391176581383
1745104051269201400,7.527201416015625,0.008949944749474525,0.007711276412010193,-0.0029615582898259163
1745104051279156700,7.53715673828125,0.0002803308889269829,-0.0012733913026750088,0.010906357318162918
1745104051289112600,7.547112548828125,-0.009362975135445595,-0.01104799099266529,0.018874002620577812
1745104051299068700,7.557068603515625,-0.02095976285636425,-0.016338838264346123,0.02673129178583622
1745104051309024500,7.5670244140625,-0.023135831579566002,-0.025744060054421425,0.031023507937788963
1745104051318979600,7.5769794921875,-0.025387179106473923,-0.02934824675321579,0.03232331946492195
1745104051328935700,7.586935791015625,-0.02115381881594658,-0.01875738799571991,0.02810487151145935
1745104051338891500,7.5968916015625,-0.01866033673286438,-0.014835805632174015,0.019624480977654457
1745104051348847600,7.60684765625,-0.0067924922332167625,-0.008611464872956276,0.008429883979260921
1745104051358802400,7.616802490234375,0.002076131524518132,0.0020748660899698734,-0.004091525450348854
1745104051368758800,7.6267587890625,0.007806987501680851,0.010571149177849293,-0.008842871524393559
1745104051378714600,7.636714599609375,0.01930704154074192,0.016789782792329788,-0.020519189536571503
1745104051388670700,7.646670654296875,0.024757998064160347,0.02463012933731079,-0.023067034780979156
1745104051398625500,7.65662548828125,0.02567223645746708,0.022591669112443924,-0.02985316701233387
1745104051408581600,7.66658154296875,0.023279651999473572,0.020271791145205498,-0.028073908761143684
1745104051418537700,7.676537841796875,0.016975941136479378,0.01796218380331993,-0.023564066737890244
1745104051428493600,7.68649365234375,0.00832492858171463,0.003712407313287258,-0.014959925785660744
1745104051438448600,7.69644873046875,-0.003357826266437769,-0.006679513491690159,-0.004688646644353867
1745104051448404500,7.706404541015625,-0.012202183715999126,-0.008889405056834221,0.005078496877104044
1745104051458360600,7.716360595703125,-0.01818261109292507,-0.018180565908551216,0.01266176626086235
1745104051468316700,7.726316650390625,-0.023876449093222618,-0.02512422576546669,0.020743394270539284
1745104051478271700,7.736271728515625,-0.022111801430583,-0.02076677791774273,0.02859751507639885
1745104051488227600,7.7462275390625,-0.01923372410237789,-0.020243201404809952,0.029660381376743317
1745104051498183700,7.75618359375,-0.01622515544295311,-0.01639685407280922,0.023172279819846153
1745104051508139500,7.766139404296875,-0.0068718669936060905,-0.001550797838717699,0.01707577146589756
1745104051518094600,7.776094482421875,0.003918422851711512,0.004320366773754358,0.006358643528074026
1745104051528050700,7.78605078125,0.012587012723088264,0.010915152728557587,-0.002072924515232444
1745104051538006500,7.796006591796875,0.02137894183397293,0.019875872880220413,-0.011713376268744469
1745104051547962600,7.805962646484375,0.021708639338612556,0.02323305420577526,-0.021931393072009087
1745104051557917700,7.815917724609375,0.022354258224368095,0.019853290170431137,-0.027899475768208504
1745104051567873800,7.825873779296875,0.018489478155970573,0.018229560926556587,-0.0278661847114563
1745104051577829600,7.83582958984375,0.00990785751491785,0.010791351087391376,-0.027144894003868103
1745104051587784400,7.845784423828125,0.0027900272980332375,0.002174959983676672,-0.023304881528019905
1745104051597740500,7.855740478515625,-0.004422299563884735,-0.0023450665175914764,-0.016282672062516212
1745104051607696600,7.865696533203125,-0.01366293616592884,-0.01350158080458641,-0.0038598247338086367
1745104051617652700,7.87565283203125,-0.02097279764711857,-0.02460505999624729,0.0020713936537504196
1745104051627607600,7.885607666015625,-0.0192292258143425,-0.017951685935258865,0.012073693796992302
1745104051637563600,7.895563720703125,-0.02140263095498085,-0.01694527640938759,0.02024933136999607
1745104051647519500,7.90551953125,-0.015664318576455116,-0.0174880288541317,0.027690736576914787
1745104051657475600,7.9154755859375,-0.008389885537326336,-0.010011889040470123,0.02607761323451996
1745104051667430700,7.9254306640625,-0.0029253452084958553,0.004821918439120054,0.022341197356581688
1745104051677385700,7.9353857421875,0.0029250530060380697,0.002171821892261505,0.016748636960983276
1745104051687341600,7.945341552734375,0.013697273097932339,0.014606387354433537,0.011031895875930786
1745104051697298000,7.9552978515625,0.018726086243987083,0.019609622657299042,0.0015358347445726395
1745104051707253800,7.965253662109375,0.01618596352636814,0.018472718074917793,-0.005975344218313694
1745104051717208800,7.975208740234375,0.0191972553730011,0.020598046481609344,-0.016048332676291466
1745104051727164700,7.98516455078125,0.014750310219824314,0.013098584488034248,-0.022485991939902306
1745104051737120800,7.995120849609375,0.005832197610288858,0.0021710647270083427,-0.02262216992676258
1745104051747075800,8.005075927734374,0.0007916325703263283,-0.005600039381533861,-0.02490796148777008
1745104051757031700,8.01503173828125,-0.007966198958456516,-0.005983936134725809,-0.017583440989255905
1745104051766987800,8.02498779296875,-0.016118668019771576,-0.01685655675828457,-0.008608588017523289
1745104051776943600,8.034943603515625,-0.017068058252334595,-0.01726095750927925,-0.004005876369774342
1745104051786899700,8.044899658203125,-0.015281876549124718,-0.014589273370802402,0.004082676488906145
1745104051796854800,8.054854736328124,-0.01643666811287403,-0.020365562289953232,0.014218948781490326
1745104051806811000,8.064810791015624,-0.01074336189776659,-0.008182663470506668,0.02115887962281704
1745104051816766700,8.0747666015625,-0.003560553537681699,-0.0019799533765763044,0.02232896350324154
1745104051826721800,8.0847216796875,0.0014320744667202234,0.0010949326679110527,0.024285322055220604
1745104051836678000,8.094677978515625,0.008340843953192234,0.015467955730855465,0.021059324964880943
1745104051846633700,8.1046337890625,0.012816285714507103,0.015113222412765026,0.015822485089302063
1745104051856589800,8.11458984375,0.016511967405676842,0.014520899392664433,0.009572217240929604
1745104051866545700,8.124545654296876,0.014743628911674023,0.00953812524676323,-0.0016764423344284296
1745104051876500700,8.134500732421875,0.010453547351062298,0.017785459756851196,-0.01482435967773199
1745104051886456800,8.144456787109375,0.008821029216051102,0.007852401584386826,-0.022213831543922424
1745104051896413000,8.154412841796875,0.003464377485215664,-0.008615860715508461,-0.028209593147039413
1745104051906368800,8.16436865234375,-0.0065789357759058475,-0.003990215715020895,-0.030811501666903496
1745104051916323800,8.17432373046875,-0.01199663057923317,-0.0063547054305672646,-0.029288941994309425
1745104051926279700,8.18427978515625,-0.013248848728835583,-0.014446187764406204,-0.02323797345161438
1745104051936235800,8.19423583984375,-0.011609921231865883,-0.017824653536081314,-0.0123403025791049
1745104051946192000,8.20419189453125,-0.011288478039205074,-0.015738332644104958,-0.002595796249806881
1745104051956146700,8.214146728515624,-0.011631792411208153,-0.00548914261162281,0.011249523609876633
1745104051966102800,8.224102783203126,-0.0038090229500085115,-0.0015194350853562355,0.02049948088824749
1745104051976058600,8.23405859375,0.0028283437713980675,-0.0028581954538822174,0.027484236285090446
1745104051986014700,8.2440146484375,0.0063306670635938644,0.005765919107943773,0.02985631488263607
1745104051995969800,8.2539697265625,0.009185360744595528,0.01776193082332611,0.03048938885331154
1745104052005926000,8.26392578125,0.011080466210842133,0.01486814022064209,0.024222970008850098
1745104052015881700,8.2738818359375,0.011526541784405708,0.007062623742967844,0.017478404566645622
1745104052025837800,8.283837890625,0.009595218114554882,0.009262127801775932,0.010122755542397499
1745104052035793000,8.29379296875,0.004027311224490404,0.011918053030967712,-0.00612974725663662
1745104052045748700,8.303748779296875,-0.0006220350624062121,-0.004362116567790508,-0.014794874005019665
1745104052055704800,8.313704833984374,-0.00067260762443766,-0.0008907557930797338,-0.02375739999115467
1745104052065660700,8.32366064453125,-0.0068681854754686356,-0.013109871186316013,-0.025633595883846283
1745104052075616000,8.333615966796875,-0.015443027019500732,-0.012816066853702068,-0.026393553242087364
1745104052085571800,8.34357177734375,-0.010514847934246063,-0.011244269087910652,-0.025323228910565376
1745104052095528000,8.35352783203125,-0.007357926107943058,-0.013768507167696953,-0.02002454176545143
1745104052105483800,8.36348388671875,-0.006792536936700344,-0.010934371501207352,-0.012036655098199844
1745104052115438600,8.3734384765625,-0.006696699187159538,0.003954785410314798,-0.00040692801121622324
1745104052125395000,8.38339501953125,0.003882975084707141,0.002698039636015892,0.012632174417376518
1745104052135350800,8.393350830078125,0.006456940900534391,-0.0012952899560332298,0.016592953354120255
1745104052145307000,8.403306884765625,0.008376015350222588,0.014462900348007679,0.02083829790353775
1745104052155261700,8.41326171875,0.006086740642786026,0.016811992973089218,0.021870413795113564
1745104052165217800,8.4232177734375,0.011006664484739304,0.005979853216558695,0.02631310001015663
1745104052175173600,8.433173583984376,0.009712371975183487,0.008711514994502068,0.020524829626083374
1745104052185130000,8.4431298828125,0.004545039962977171,0.0042706942185759544,0.010992310009896755
1745104052195084800,8.453084716796875,-0.0037137018516659737,0.0017316709272563457,0.0024215541779994965
1745104052205040600,8.46304052734375,-0.0034748162142932415,-0.005703874863684177,-0.009764539077877998
1745104052214996700,8.472996826171874,-0.004507832694798708,-0.00859486311674118,-0.01373348105698824
1745104052224952600,8.48295263671875,-0.011662148870527744,-0.015285257250070572,-0.02104652114212513
1745104052234908000,8.492907958984375,-0.011307685635983944,-0.004797520115971565,-0.023967320099473
1745104052244863700,8.50286376953125,-0.009133481420576572,-0.010442355647683144,-0.026328744366765022
1745104052254819800,8.51281982421875,-0.002429502084851265,-0.00968249887228012,-0.02230193465948105
1745104052264775700,8.522775634765624,-0.0024886243045330048,-0.0003579729236662388,-0.01912877894937992
1745104052274731800,8.532731689453126,-0.0007905819220468402,0.006887596100568771,-0.004724743776023388
1745104052284686800,8.542686767578125,0.00534374313428998,0.0010928241536021233,0.0077708084136247635
1745104052294642700,8.552642578125,0.0091397725045681,0.009880827739834785,0.012774374336004257
1745104052304598800,8.562598876953125,0.006954914890229702,0.015015935525298119,0.02073110081255436
1745104052314554600,8.5725546875,0.007016453891992569,0.008565041236579418,0.022317668423056602
1745104052324510000,8.582510009765626,0.009351246990263462,0.0025130081921815872,0.027814432978630066
1745104052334465800,8.5924658203125,0.004664616193622351,0.007748782634735107,0.02585754171013832
1745104052344422000,8.602421875,-0.004831151105463505,0.0012682466767728329,0.021506736055016518
1745104052354377700,8.612377685546875,-0.007375021930783987,-0.001327085541561246,0.008401996456086636
1745104052364332800,8.622332763671874,-0.0057172044180333614,-0.01277068816125393,-0.003868251573294401
1745104052374289000,8.632288818359376,-0.012085378170013428,-0.0123735461384058,-0.01106311846524477
1745104052384244700,8.64224462890625,-0.016639649868011475,-0.007944708690047264,-0.016409946605563164
1745104052394200800,8.652200927734375,-0.010928226634860039,-0.0073618339374661446,-0.025096852332353592
1745104052404155600,8.66215576171875,-0.0004345729248598218,-0.015592332929372787,-0.026197005063295364
1745104052414111700,8.67211181640625,0.00010874297004193068,-0.0018386554438620806,-0.028621522709727287
1745104052424067800,8.68206787109375,0.0015657583717256784,0.010136514902114868,-0.02261662669479847
1745104052434024000,8.69202392578125,0.004672562703490257,0.002616588957607746,-0.012171792797744274
1745104052443978800,8.701978759765625,0.01641710288822651,0.00531889870762825,-0.0010754660470411181
1745104052453934600,8.7119345703125,0.013436519540846348,0.015270324423909187,0.006567720323801041
1745104052463890700,8.721890625,0.0039271702989935875,0.01584050804376602,0.014946823939681053
1745104052473846800,8.7318466796875,0.0067216018214821815,0.0145223094150424,0.02220013737678528
1745104052483801900,8.7418017578125,0.007788996212184429,0.0008222097530961037,0.03153159096837044
1745104052493757700,8.7517578125,-0.0007264525047503412,0.0003387546166777611,0.03162325918674469
1745104052503713800,8.7617138671875,-0.011513053439557552,0.0002615232951939106,0.02639574185013771
1745104052513669600,8.771669677734375,-0.011550365015864372,-0.005676846485584974,0.018925288692116737
1745104052523625000,8.781625,-0.00841209664940834,-0.01745866984128952,0.017705028876662254
1745104052533580800,8.791580810546876,-0.016178391873836517,-0.0158015675842762,0.01839783415198326
1745104052543536600,8.80153662109375,-0.020786458626389503,-0.0011246197391301394,0.012933827005326748
1745104052553492700,8.81149267578125,-0.014288600534200668,-0.01522475853562355,0.004539178684353828
1745104052563448600,8.821448486328125,0.0007031324785202742,-0.009097091853618622,-0.00039592524990439415
1745104052573404000,8.83140380859375,0.006277936510741711,0.005408523138612509,-0.015504776500165462
1745104052583359700,8.84135986328125,0.0015886424807831645,-0.002695476170629263,-0.012731094844639301
1745104052593315800,8.85131591796875,0.006309072487056255,0.01835714466869831,-0.01106669008731842
1745104052603271700,8.861271728515625,0.010145089589059353,0.006584641057997942,-0.019470026716589928
1745104052613227000,8.87122705078125,0.012682842090725899,-0.003394497325643897,-0.027718722820281982
1745104052623182800,8.881182861328124,0.003930362872779369,0.021502597257494926,-0.031709469854831696
1745104052633139000,8.891138916015626,0.0008322871290147305,0.004223865456879139,-0.01383775845170021
1745104052643094800,8.9010947265625,0.01074696984142065,0.008282256312668324,0.003995567560195923
1745104052653049600,8.911049560546875,0.005688839126378298,0.000897544901818037,0.009607016108930111
1745104052663006000,8.921005859375,-0.004517459310591221,0.004774574190378189,0.015841210260987282
1745104052672962000,8.930962158203124,-0.0011861410457640886,-0.006334913894534111,0.020672589540481567
1745104052682918000,8.94091796875,0.00048286188393831253,-0.017672523856163025,0.032867737114429474
1745104052692872700,8.950872802734375,-0.016953129321336746,-0.006661918945610523,0.03809934854507446
1745104052702828800,8.960828857421875,-0.02004213072359562,0.005389417987316847,0.02954421006143093
1745104052712784600,8.97078466796875,-0.0072376420721411705,-0.018564682453870773,0.013484450057148933
1745104052722741000,8.980740966796875,0.004138316959142685,-0.017197681590914726,0.00039954110980033875
1745104052732696800,8.99069677734375,-0.00667595723643899,-0.006425999104976654,-0.004705294966697693
1745104052742652000,9.00065185546875,-0.0074783675372600555,0.013286719098687172,-0.009410301223397255
1745104052752607700,9.010607666015625,0.00686380360275507,0.0032787416130304337,-0.01731335185468197
1745104052762563800,9.020563720703125,0.019337251782417297,-0.0009700655937194824,-0.03496531397104263
1745104052772520000,9.03052001953125,0.011682016775012016,0.014487389475107193,-0.04808078333735466
1745104052782474800,9.040474853515626,0.007907518185675144,0.021839311346411705,-0.04944698512554169
1745104052792430800,9.050430908203126,0.014859422110021114,0.009172284975647926,-0.02623690292239189
1745104052802386700,9.06038671875,0.01654839888215065,-0.0017671817913651466,-0.012697924859821796
1745104052812342800,9.0703427734375,0.0022416040301322937,0.010160736739635468,-0.017782825976610184
1745104052822297900,9.0802978515625,-0.007711694110184908,0.009281095117330551,-0.015411279164254665
1745104052832254000,9.09025390625,-0.005724667105823755,-0.006998403463512659,0.0018341573886573315
1745104052842209800,9.100209716796876,-0.0013578820507973433,-0.012081844732165337,0.02476423978805542
1745104052852166000,9.110165771484375,-0.012175382114946842,-0.012716859579086304,0.04848906025290489
1745104052862121700,9.120121826171875,-0.01851130835711956,-0.003345994744449854,0.04734043776988983
1745104052872076800,9.130076904296875,-0.007846996188163757,-0.011508960276842117,0.03383711352944374
1745104052882033000,9.140032958984374,-0.0030663551297038794,-0.010669797658920288,0.029039161279797554
1745104052891988700,9.14998876953125,-0.005178493447601795,-0.0034397009294480085,0.02823697216808796
1745104052901944800,9.15994482421875,-0.005828570574522018,0.0038997046649456024,0.020465068519115448
1745104052911900000,9.16989990234375,0.004159614443778992,0.006378308869898319,0.003115640953183174
1745104052921856000,9.17985595703125,0.01140394527465105,-0.000009017065167427063,-0.028008989989757538
1745104052931811800,9.189811767578124,0.011822620406746864,0.01665337011218071,-0.04354531690478325
1745104052941768000,9.199767822265626,0.0085514597594738,0.011235169135034084,-0.0416339673101902
1745104052951722800,9.20972265625,0.007232670672237873,0.0038490677252411842,-0.03144225850701332
1745104052961679000,9.21967919921875,0.009006602689623833,0.00508477445691824,-0.030382320284843445
1745104052971635000,9.229635009765625,0.0034030089154839516,-0.0019337425474077463,-0.03352130576968193
1745104052981590800,9.2395908203125,-0.0031819234136492014,0.00044792238622903824,-0.027757428586483
1745104052991545900,9.2495458984375,-0.001990948338061571,-0.0014717152807861567,-0.008742026053369045
1745104053001501700,9.259501708984375,-0.0027898966800421476,-0.011286262422800064,0.017643243074417114
1745104053011458000,9.2694580078125,-0.010844627395272255,-0.0033668207470327616,0.03306401148438454
1745104053021414000,9.279413818359375,-0.013465444557368755,0.0002276478335261345,0.032928988337516785
1745104053031370000,9.289369873046875,-0.003647157922387123,-0.0065344152972102165,0.029912060126662254
1745104053041324800,9.29932470703125,-0.0017179639544337988,-0.012074323371052742,0.03324127569794655
1745104053051281000,9.309281005859376,-0.004032788798213005,0.0020938427187502384,0.03821185231208801
1745104053061236700,9.31923681640625,-0.005692737177014351,0.005207344423979521,0.03716735914349556
1745104053071193000,9.329193115234375,0.0028717275708913803,-0.000373725313693285,0.02177024446427822
1745104053081148000,9.33914794921875,0.00913122110068798,-0.0007079518400132656,-0.00030523055465891957
1745104053091103700,9.349103759765624,0.004565469920635223,0.005718348082154989,-0.017368601635098457
1745104053101059800,9.359059814453126,0.0003736540675163269,0.0019720792770385742,-0.019816046580672264
1745104053111015700,9.369015625,0.003681848756968975,0.006511318031698465,-0.0238097682595253
1745104053120971000,9.378970947265625,0.0018703663954511285,0.003735505510121584,-0.03369728475809097
1745104053130926800,9.3889267578125,-0.0007499225321225822,0.003667476586997509,-0.04998113214969635
1745104053140883000,9.398883056640624,-0.0018625912489369512,-0.0019592498429119587,-0.052790235728025436
1745104053150838800,9.4088388671875,0.002861326327547431,-0.0013173697516322136,-0.03447050601243973
1745104053160795000,9.418794921875,-0.004775820765644312,-0.012383602559566498,-0.0072396863251924515
1745104053170750000,9.42875,-0.005408863071352243,0.0068447170779109,0.009940465912222862
1745104053180705800,9.438705810546875,-0.0020093382336199284,0.0037621082738041878,0.01913742534816265
1745104053190662000,9.448661865234374,0.0003302488476037979,-0.015141541138291359,0.02333989366889
1745104053200617700,9.45861767578125,0.0009377158712595701,0.009025580249726772,0.03440719470381737
1745104053210573000,9.468572998046875,-0.0035619542468339205,-0.004299901891499758,0.0507686473429203
1745104053220529000,9.47852880859375,-0.004077009856700897,-0.00479604909196496,0.05651335418224335
1745104053230485000,9.488485107421875,-0.0007754660909995437,0.005654723383486271,0.04216974228620529
1745104053240440800,9.49844091796875,-0.0031163846142590046,-0.003779258579015732,0.01694880798459053
1745104053250397000,9.50839697265625,-0.0010127616114914417,-0.0010480962228029966,-0.004112594295293093
1745104053260352000,9.51835205078125,-0.00009903102181851864,0.001012125052511692,-0.013395841233432293
1745104053270307800,9.528307861328125,0.0018596791196614504,0.001103295013308525,-0.019912198185920715
1745104053280264000,9.538263916015625,0.00245968927629292,-0.0007846199441701174,-0.0372600294649601
1745104053290219800,9.5482197265625,0.0021308097057044506,0.00481905834749341,-0.056912705302238464
1745104053300174800,9.5581748046875,0.005281595513224602,0.0035588503815233707,-0.058064259588718414
1745104053310131000,9.568130859375,0.004272521939128637,-0.0022130783181637526,-0.03722246736288071
1745104053320087000,9.578087158203125,0.004408076871186495,0.005114875268191099,-0.018514560535550117
1745104053330043000,9.58804296875,0.0018634285079315305,0.006515757646411657,-0.001919497037306428
1745104053339997700,9.597997802734374,0.003363054245710373,-0.0019400448072701693,0.0054915472865104675
1745104053349953800,9.607953857421874,0.0030890030320733786,0.0032546278089284897,0.014369080774486065
1745104053359910000,9.617909912109376,-0.0013483557850122452,0.0001421915367245674,0.03104632906615734
1745104053369866000,9.627865966796875,-0.006470668129622936,-0.003217296674847603,0.051023345440626144
1745104053379821800,9.63782177734375,-0.0066219354048371315,-0.0023296652361750603,0.05077620595693588
1745104053389777000,9.64777685546875,-0.005496469791978598,-0.004623890854418278,0.039939653128385544
1745104053399732700,9.657732666015624,-0.002227705903351307,-0.00798080489039421,0.018951810896396637
1745104053409688800,9.667688720703126,-0.0022287610918283463,-0.0050319186411798,0.010148899629712105
1745104053419645000,9.67764501953125,-0.0037052175030112267,-0.0011042889673262835,0.003998062573373318
1745104053429599700,9.687599853515625,-0.0015566007932648063,-0.004500614944845438,-0.006430251523852348
1745104053439555800,9.697555908203125,0.0036264434456825256,0.00024593714624643326,-0.026623671874403954
1745104053449511700,9.70751171875,0.0044304560869932175,0.005787293892353773,-0.04674869403243065
1745104053459467800,9.7174677734375,0.004053352866321802,0.0014423467218875885,-0.0508347824215889
1745104053469423900,9.727423828125,0.005263200495392084,0.004758809693157673,-0.04537244141101837
1745104053479379000,9.73737890625,0.004388352390378714,0.006627283059060574,-0.03216928988695145
1745104053489334800,9.747334716796875,0.0044999499805271626,0.01236941572278738,-0.021777255460619926
1745104053499291000,9.757290771484374,0.007590015418827534,0.0031080064363777637,-0.01637876220047474
1745104053509246700,9.767246826171874,0.0021893754601478577,0.0042760660871863365,-0.00509751308709383
1745104053519201800,9.777201904296875,-0.00041386455995962024,0.00285180751234293,0.023475274443626404
1745104053529158000,9.787157958984375,-0.004187782295048237,-0.007188013754785061,0.04268766939640045
1745104053539113700,9.79711376953125,-0.00606983806937933,0.0041780914179980755,0.048897892236709595
1745104053549069800,9.80706982421875,-0.007282152306288481,-0.0060933055356144905,0.048644065856933594
1745104053559025700,9.817025634765624,-0.004938570782542229,-0.014899048022925854,0.0370718352496624
1745104053568981000,9.82698095703125,-0.007708252407610416,-0.0012352545745670795,0.028468014672398567
1745104053578936800,9.836936767578125,-0.01146517414599657,-0.0074068643152713776,0.0182619821280241
1745104053588893000,9.846892822265625,-0.007491739466786385,-0.001950372476130724,0.0055396887473762035
1745104053598848800,9.856848876953125,0.001116662286221981,-0.003292605746537447,-0.01877949945628643
1745104053608803800,9.866803955078124,0.00555696664378047,-0.0009786435402929783,-0.03768068924546242
1745104053618760000,9.876760009765626,-0.001989899203181267,0.0006895605474710464,-0.04382460191845894
1745104053628715800,9.8867158203125,0.0070291543379426,0.013561711646616459,-0.03925478458404541
1745104053638672000,9.896671875,0.01175200380384922,0.00039371242746710777,-0.024317646399140358
1745104053648627700,9.906627685546875,0.010329073294997215,0.010075781494379044,-0.01883973740041256
1745104053658583000,9.9165830078125,0.012591960839927197,0.010290432721376419,-0.011995147913694382
1745104053668539000,9.926538818359376,0.007168157957494259,0.007672781124711037,0.0012229152489453554
1745104053678495200,9.9364951171875,0.0038836814928799868,-0.002396098803728819,0.017577387392520905
1745104053688451300,9.946451416015625,-0.0004937653429806232,-0.0044803800992667675,0.02925870008766651
1745104053698406100,9.95640625,-0.010553322732448578,-0.0001580696552991867,0.0321253277361393
1745104053708362200,9.9663623046875,-0.012222310528159142,-0.014720969833433628,0.028584128245711327
1745104053718318300,9.976318359375,-0.01010376587510109,-0.014148123562335968,0.021909715607762337
1745104053728274400,9.9862744140625,-0.011452126316726208,-0.010262630879878998,0.021217184141278267
1745104053738230300,9.996230224609375,-0.015543806366622448,-0.012784378603100777,0.017297010868787766
1745104053748185000,10.00618505859375,-0.0018599347677081823,-0.0006893652025610209,0.008549497462809086
1745104053758141200,10.01614111328125,0.004508215934038162,-0.0037879531737416983,-0.01049743127077818
1745104053768097300,10.02609716796875,0.0058815996162593365,0.0019277525134384632,-0.02905024029314518
1745104053778053400,10.036053466796876,0.004164393525570631,0.014848610386252403,-0.034085746854543686
1745104053788008200,10.04600830078125,0.013832710683345795,0.010361476801335812,-0.02458018809556961
1745104053797964300,10.05596435546875,0.014001822099089622,0.009752411395311356,-0.025932274758815765
1745104053807920000,10.065920166015625,0.01142920833081007,0.012639811262488365,-0.030271630734205246
1745104053817876200,10.075876220703124,0.008735953830182552,0.013956744223833084,-0.029255367815494537
1745104053827832300,10.085832275390626,0.006839505862444639,0.0032825199887156487,-0.015538119710981846
1745104053837787100,10.095787109375,0.003405625931918621,-0.003188162576407194,0.002707728883251548
1745104053847743200,10.1057431640625,-0.006209155544638634,0.00045863445848226547,0.0169316828250885
1745104053857699000,10.115698974609375,-0.016466854140162468,-0.012007622048258781,0.020376747474074364
1745104053867655200,10.1256552734375,-0.014330223202705383,-0.011440997943282127,0.01828775368630886
1745104053877611300,10.135611328125,-0.012126989662647247,-0.01362239383161068,0.022087285295128822
1745104053887566300,10.14556640625,-0.014777900651097298,-0.01975192502140999,0.027086040005087852
1745104053897522200,10.155522216796875,-0.013230337761342525,-0.004431558307260275,0.022758668288588524
1745104053907478300,10.165478271484375,-0.007975121028721333,-0.004591081757098436,0.020108023658394814
1745104053917434000,10.17543408203125,-0.0008658127626404166,-0.0029835975728929043,0.003015058347955346
1745104053927389200,10.18538916015625,0.00806456245481968,0.002588887233287096,-0.011986315250396729
1745104053937345300,10.19534521484375,0.008022484369575977,0.011360540054738522,-0.012678470462560654
1745104053947301000,10.205301025390625,0.011934136971831322,0.016329320147633553,-0.01200421154499054
1745104053957257200,10.21525732421875,0.016995741054415703,0.014164702966809273,-0.020694905892014503
1745104053967213000,10.225213134765625,0.016761943697929382,0.01892937161028385,-0.034991487860679626
1745104053977168400,10.23516845703125,0.009668348357081413,0.01116306334733963,-0.0354122668504715
1745104053987124200,10.245124267578126,0.007537259254604578,0.007085814140737057,-0.023690855130553246
1745104053997080300,10.255080322265625,0.002527320757508278,0.000634306576102972,-0.006655412260442972
1745104054007036200,10.2650361328125,-0.007719187531620264,-0.007294009905308485,0.001525872852653265
1745104054016991200,10.2749912109375,-0.010919773951172829,-0.007285487838089466,0.00469956174492836
1745104054026947300,10.284947265625,-0.01101564522832632,-0.01155734434723854,0.007123518735170364
1745104054036903200,10.294903076171876,-0.011294212192296982,-0.017845068126916885,0.019147157669067383
1745104054046859300,10.304859375,-0.01465672068297863,-0.012467140331864357,0.030161619186401367
1745104054056815000,10.314815185546875,-0.014787482097744942,-0.006107245571911335,0.03739795833826065
1745104054066770400,10.3247705078125,-0.006926082074642181,-0.005971154198050499,0.026218442246317863
1745104054076726300,10.334726318359374,0.001874599838629365,-0.004339435137808323,0.014651535078883171
1745104054086682400,10.344682373046876,0.006312203127890825,0.009581608697772026,0.007892690598964691
1745104054096638200,10.35463818359375,0.0070317890495061874,0.005835074465721846,0.004424722399562597
1745104054106593000,10.364593017578125,0.011518951505422592,0.011518646031618118,-0.002292888006195426
1745104054116549400,10.37454931640625,0.015739263966679573,0.016625789925456047,-0.01686970144510269
1745104054126505200,10.384505126953124,0.012298989109694958,0.010261248797178268,-0.02599203772842884
1745104054136461300,10.39446142578125,0.005886896047741175,0.010564582422375679,-0.03524785488843918
1745104054146417200,10.404417236328126,0.005825115367770195,0.007536275312304497,-0.02944972738623619
1745104054156372200,10.414372314453125,0.0031044301576912403,-0.005964353680610657,-0.021458912640810013
1745104054166328000,10.424328125,-0.00884997472167015,-0.006536228582262993,-0.017698902636766434
1745104054176284400,10.434284423828124,-0.012326996773481369,-0.008704841136932373,-0.011615177616477013
1745104054186240300,10.444240234375,-0.009438803419470787,-0.01637471839785576,-0.006427498534321785
1745104054196196400,10.4541962890625,-0.01038395892828703,-0.013723010197281837,0.0066558122634887695
1745104054206151200,10.464151123046875,-0.012838853523135185,-0.008609052747488022,0.01988021843135357
1745104054216107000,10.47410693359375,-0.010692878626286983,-0.006131779868155718,0.026456894353032112
1745104054226063400,10.4840634765625,-0.003370781894773245,-0.004265376832336187,0.02429850772023201
1745104054236019200,10.494019287109374,0.005200868472456932,-0.00048635154962539673,0.017475755885243416
1745104054245975300,10.503975341796876,0.005591550376266241,0.009783150628209114,0.01579471491277218
1745104054255930000,10.51393017578125,0.007491715718060732,0.006496276706457138,0.01567806862294674
1745104054265886200,10.52388623046875,0.013070516288280487,0.011380461975932121,0.007951496168971062
1745104054275842300,10.53384228515625,0.009380972944200039,0.010156206786632538,-0.003985324874520302
1745104054285798400,10.54379833984375,0.003288708161562681,0.0064039756543934345,-0.016228409484028816
1745104054295753200,10.553753173828126,0.006643225904554129,0.010580077767372131,-0.024303913116455078
1745104054305709000,10.563708984375,0.004799790680408478,-0.003933314699679613,-0.02233503945171833
1745104054315665200,10.5736650390625,-0.0028743743896484375,-0.006571442354470491,-0.019188249483704567
1745104054325621200,10.583621337890625,-0.01046411320567131,0.0009263958781957626,-0.022366570308804512
1745104054335577300,10.593577392578124,-0.009281403385102749,-0.011340124532580376,-0.019141748547554016
1745104054345532200,10.6035322265625,-0.0073889694176614285,-0.013669600710272789,-0.010164393112063408
1745104054355488300,10.61348828125,-0.006076297722756863,-0.0063714743591845036,-0.0007064425735734403
1745104054365444000,10.623444091796875,-0.008475526235997677,-0.008860541507601738,0.014227712526917458
1745104054375400200,10.633400146484375,-0.005856840405613184,-0.0007911634165793657,0.023359425365924835
1745104054385356300,10.643356201171875,0.004104177001863718,0.0001929611898958683,0.02644837275147438
1745104054395311400,10.653311279296876,0.006139630917459726,0.0070996033027768135,0.027123482897877693
1745104054405267200,10.66326708984375,0.0056280335411429405,0.006813338492065668,0.03131886571645737
1745104054415223000,10.67322314453125,0.007160682696849108,0.0053965370170772076,0.029581686481833458
1745104054425179100,10.68317919921875,0.00931863859295845,0.009304750710725784,0.02312629297375679
1745104054435134200,10.69313427734375,0.0060338955372571945,-0.0008522786665707827,0.006401374004781246
1745104054445090300,10.70309033203125,0.0018657869659364223,0.007570269517600536,-0.012653011828660965
1745104054455046100,10.713046142578126,0.0009350122418254614,0.0011339415796101093,-0.024800222367048264
1745104054465002200,10.723002197265625,-0.004613418597728014,-0.011858083307743073,-0.032895274460315704
1745104054474958000,10.7329580078125,-0.006698939949274063,-0.0014488520100712776,-0.03926023095846176
1745104054484913400,10.742913330078125,-0.007469650823622942,-0.006335065700113773,-0.039823006838560104
1745104054494869200,10.752869140625,-0.00876847468316555,-0.013674205169081688,-0.03791724890470505
1745104054504825300,10.762825439453126,-0.0024448083713650703,-0.004202414769679308,-0.027777954936027527
1745104054514781200,10.77278125,-0.004995850846171379,-0.005439985543489456,-0.0065459031611680984
1745104054524737300,10.7827373046875,-0.00005169829819351435,0.0013321544975042343,0.013704883866012096
1745104054534692400,10.7926923828125,0.0052799503318965435,0.008580746129155159,0.02842816896736622
1745104054544648200,10.802648193359374,0.0060149929486215115,0.005424088798463345,0.03874370828270912
1745104054554604300,10.812604248046876,0.00981718860566616,0.010579169727861881,0.045439161360263824
1745104054564560100,10.82256005859375,0.007667474448680878,0.00541564030572772,0.04558302462100983
1745104054574516200,10.83251611328125,0.008288257755339146,0.013122029602527618,0.04421709105372429
1745104054584471300,10.84247119140625,0.0010050478158518672,0.0009447615593671799,0.035653695464134216
1745104054594427400,10.852427490234374,-0.0030735833570361137,-0.001174848061054945,0.013489005155861378
1745104054604383200,10.86238330078125,-0.00495243351906538,0.0023581706918776035,-0.008573686704039574
1745104054614339300,10.87233935546875,-0.006740746088325977,-0.01566370576620102,-0.0270879827439785
1745104054624295200,10.882295166015625,-0.004662427119910717,-0.006447822321206331,-0.03418029844760895
1745104054634250200,10.892250244140625,-0.008421745151281357,-0.009055856615304947,-0.041327424347400665
1745104054644206300,10.902206298828125,-0.0062059978954494,-0.010656125843524933,-0.04836205393075943
1745104054654162200,10.912162109375,-0.0011100388364866376,-0.0002684658393263817,-0.05027792975306511
1745104054664118300,10.9221181640625,0.00007161335088312626,-0.004783456213772297,-0.03967791795730591
1745104054674073600,10.932073486328125,0.002444223500788212,0.008194128051400185,-0.018891146406531334
1745104054684029000,10.94202880859375,0.004945467226207256,0.006004657596349716,0.005311182234436274
1745104054693984800,10.95198486328125,0.009133821353316307,0.01243992056697607,0.02043207734823227
1745104054703940900,10.96194091796875,0.010088030248880386,0.010920791886746883,0.03270115330815315
1745104054713896700,10.971896728515626,0.0075060962699353695,0.004798451438546181,0.038971565663814545
1745104054723851800,10.981851806640625,0.005673296749591827,0.01357634924352169,0.048988793045282364
1745104054733807900,10.991807861328125,0.00009770249016582966,-0.001993821933865547,0.050794146955013275
1745104054743763700,11.001763671875,-0.0054597798734903336,-0.0023931358009576797,0.041095126420259476
1745104054753719800,11.0117197265625,-0.007579922676086426,-0.004823003895580769,0.023639965802431107
1745104054763675600,11.021675537109376,-0.01059248112142086,-0.014272178523242474,0.005381383001804352
1745104054773631000,11.031630859375,-0.008874209597706795,-0.012551510706543922,-0.016275176778435707
1745104054783586800,11.0415869140625,-0.013455118052661419,-0.013205472379922867,-0.030256718397140503
1745104054793543000,11.05154296875,-0.01133044809103012,-0.01067067589610815,-0.04323350265622139
1745104054803498800,11.061498779296874,-0.0063591282814741135,-0.007600559387356043,-0.053954217582941055
1745104054813454800,11.071454833984374,0.00408791983500123,0.0008003818802535534,-0.054303888231515884
1745104054823410000,11.081409912109375,0.007925532758235931,0.003884878009557724,-0.04443596675992012
1745104054833365800,11.09136572265625,0.008153233677148819,0.009914274327456951,-0.02549690008163452
1745104054843321900,11.10132177734375,0.012842797674238682,0.01766955852508545,-0.008462845347821712
1745104054853277700,11.111277587890624,0.01629345491528511,0.013576546683907509,0.010063434951007366
1745104054863233800,11.12123388671875,0.01376238465309143,0.010990701615810394,0.023324327543377876
1745104054873188600,11.131188720703125,0.008174806833267212,0.013739082962274551,0.036853451281785965
1745104054883145000,11.14114501953125,0.0022346307523548603,0.006547374650835991,0.047854382544755936
1745104054893100800,11.151100830078125,-0.002653601113706827,-0.007673373445868492,0.056820180267095566
1745104054903057000,11.161056884765625,-0.011679860763251781,-0.0056888144463300705,0.044314466416835785
1745104054913012700,11.1710126953125,-0.013533154502511024,-0.01264099683612585,0.028781047090888023
1745104054922967600,11.180967529296876,-0.01794174127280712,-0.022268766537308693,0.01107783056795597
1745104054932924000,11.190923828125,-0.016961699351668358,-0.01779412478208542,-0.002416672185063362
1745104054942879700,11.200879638671875,-0.016717491671442986,-0.014196023344993591,-0.020996052771806717
1745104054952835800,11.2108359375,-0.01159676630049944,-0.013737693428993225,-0.03794414550065994
1745104054962791700,11.220791748046874,0.0003861264558508992,-0.0023167873732745647,-0.04903312027454376
1745104054972746800,11.230746826171876,0.008155632764101028,0.006098801735788584,-0.05297007039189339
1745104054982702800,11.240702880859375,0.013673437759280205,0.010887879878282547,-0.048563819378614426
1745104054992659000,11.250658935546875,0.018922261893749237,0.018143661320209503,-0.033875420689582825
1745104055002614800,11.26061474609375,0.020599784329533577,0.023670919239521027,-0.019292352721095085
1745104055012571000,11.27057080078125,0.019106550142169,0.01640714704990387,-0.004751226864755154
1745104055022525700,11.280525634765626,0.017031945288181305,0.017671842128038406,0.00861442182213068
1745104055032481800,11.290481689453125,0.012129065580666065,0.013678164221346378,0.025812583044171333
1745104055042438000,11.30043798828125,0.0008465833961963654,-0.00025344640016555786,0.042733557522296906
1745104055052393700,11.310393798828125,-0.008162357844412327,-0.0033309950958937407,0.049775756895542145
1745104055062349800,11.320349853515625,-0.014351810328662395,-0.014599834568798542,0.04357921704649925
1745104055072304600,11.3303046875,-0.022219853475689888,-0.021035894751548767,0.036617446690797806
1745104055082260700,11.3402607421875,-0.023288579657673836,-0.021407755091786385,0.02401542104780674
1745104055092216800,11.350216796875,-0.021617446094751358,-0.021722808480262756,0.01565629243850708
1745104055102173000,11.3601728515625,-0.020269354805350304,-0.017019683495163918,0.0010985038243234158
1745104055112128800,11.370128662109375,-0.01040873397141695,-0.009138057939708233,-0.014640777371823788
1745104055122083600,11.38008349609375,0.0012295482447370887,0.002282149624079466,-0.0339207760989666
1745104055132039700,11.390039794921876,0.010762865655124187,0.006965850945562124,-0.042133696377277374
1745104055141995800,11.399995849609375,0.01881333254277706,0.015460452064871788,-0.04251817241311073
1745104055151952000,11.409951904296875,0.02182030864059925,0.027102192863821983,-0.03589861840009689
1745104055161907700,11.41990771484375,0.02164107747375965,0.02320488542318344,-0.02514956146478653
1745104055171862800,11.42986279296875,0.023249361664056778,0.02060990035533905,-0.020294886082410812
1745104055181818600,11.439818603515626,0.020656773820519447,0.021715234965085983,-0.009100344032049179
1745104055191774700,11.449774658203125,0.008312755264341831,0.00740633811801672,0.006988344714045525
1745104055201730800,11.459730712890625,-0.0009585067164152861,-0.0023935199715197086,0.025965454056859016
1745104055211687000,11.46968701171875,-0.01214937586337328,-0.006108895875513554,0.034551218152046204
1745104055221641700,11.479641845703124,-0.019132450222969055,-0.019686881452798843,0.03808000311255455
1745104055231597800,11.489597900390624,-0.024139193817973137,-0.025359949097037315,0.032504141330718994
1745104055241553700,11.4995537109375,-0.025882495567202568,-0.022490553557872772,0.027150152251124382
1745104055251509800,11.509509765625,-0.020250441506505013,-0.024438656866550446,0.023605484515428543
1745104055261465900,11.5194658203125,-0.016284732148051262,-0.017699426040053368,0.00989193469285965
1745104055271420700,11.529420654296874,-0.0073889754712581635,-0.0016240531112998724,-0.006701690144836903
1745104055281376800,11.539376708984374,0.0028612660244107246,0.000026904046535491943,-0.02207791432738304
1745104055291332600,11.54933251953125,0.01258313562721014,0.012422854080796242,-0.03204532712697983
1745104055301289000,11.5592890625,0.023169467225670815,0.023826096206903458,-0.03567097336053848
1745104055311244800,11.569244873046875,0.02435324341058731,0.022228199988603592,-0.03310741111636162
1745104055321199900,11.579199951171875,0.027612417936325073,0.02643599733710289,-0.03044535592198372
1745104055331155700,11.58915576171875,0.02559906803071499,0.023479091003537178,-0.0292514618486166
1745104055341111800,11.59911181640625,0.019730793312191963,0.01591607928276062,-0.017470603808760643
1745104055351068000,11.60906787109375,0.004698845557868481,0.0029922914691269398,-0.00436518806964159
1745104055361023700,11.619023681640625,-0.004415555857121944,-0.0029485230334103107,0.010788099840283394
1745104055370978800,11.628978759765625,-0.01534250658005476,-0.015650736168026924,0.024951323866844177
1745104055380934700,11.6389345703125,-0.022696025669574738,-0.024912187829613686,0.030508585274219513
1745104055390890800,11.648890869140626,-0.025214577093720436,-0.025284230709075928,0.032270532101392746
1745104055400846600,11.6588466796875,-0.027499835938215256,-0.024387767538428307,0.03128458559513092
1745104055410803000,11.668802978515625,-0.024135997518897057,-0.026257839053869247,0.03144384175539017
1745104055420757800,11.6787578125,-0.015169929713010788,-0.015694910660386086,0.021723873913288116
1745104055430713900,11.6887138671875,-0.006993226706981659,-0.005361579358577728,0.006987804546952248
1745104055440669700,11.698669677734374,0.0054005905985832214,0.003534225281327963,-0.004649760667234659
1745104055450625800,11.708625732421876,0.014271846041083336,0.01424332894384861,-0.016161007806658745
1745104055460582000,11.718581787109375,0.024111958220601082,0.024479536339640617,-0.022414391860365868
1745104055470536700,11.72853662109375,0.02433699555695057,0.024159157648682594,-0.029215838760137558
1745104055480492800,11.738492919921875,0.026769526302814484,0.02884560450911522,-0.033052168786525726
1745104055490448600,11.74844873046875,0.02301952987909317,0.022978127002716064,-0.035272449254989624
1745104055500404700,11.75840478515625,0.013492337428033352,0.00595327652990818,-0.0252167247235775
1745104055510360800,11.76836083984375,0.003745700465515256,0.0027431026101112366,-0.013474846258759499
1745104055520316000,11.77831591796875,-0.008765297941863537,-0.0039042304269969463,0.0012945618946105242
1745104055530271700,11.788271728515625,-0.017799273133277893,-0.01941820979118347,0.009940780699253082
1745104055540227800,11.798227783203124,-0.022363930940628052,-0.0252640750259161,0.016013048589229584
1745104055550183700,11.80818359375,-0.023873675614595413,-0.024221180006861687,0.02157878875732422
1745104055560139800,11.818139892578126,-0.027018336579203606,-0.027143483981490135,0.033226240426301956
1745104055570094800,11.8280947265625,-0.021580161526799202,-0.016961952671408653,0.03343876078724861
1745104055580050700,11.83805078125,-0.011658822186291218,-0.009858114644885063,0.02505907043814659
1745104055590006800,11.8480068359375,-0.0036813230253756046,-0.0053512477315962315,0.017789438366889954
1745104055599962600,11.857962646484374,0.00827653706073761,0.00984851736575365,0.005179897882044315
1745104055609918700,11.867918701171876,0.016307031735777855,0.01993604004383087,-0.0034577990882098675
1745104055619873800,11.877873779296875,0.01865221932530403,0.019345594570040703,-0.013214733451604843
1745104055629830000,11.887829833984375,0.026194024831056595,0.02636435441672802,-0.02216961421072483
1745104055639785700,11.89778564453125,0.02513994835317135,0.023342810571193695,-0.028432613238692284
1745104055649741800,11.907741943359374,0.017696944996714592,0.015602068044245243,-0.0323711633682251
1745104055659697700,11.91769775390625,0.011178582906723022,0.009585008025169373,-0.029436348006129265
